ax,ay,az,agx,agy,agz,gx,gy,gz,roll,pitch,yaw
0.00720,0.06515,-0.26761,0.75879,-5.75991,-7.90051,-0.02241,-0.16090,0.15138,0.09575,0.62778,-0.32909
-0.19094,0.07880,-0.30008,0.74086,-5.76040,-7.90186,0.01048,-0.10381,0.11652,0.09348,0.62784,-0.32748
-0.14486,0.03143,-0.28556,0.72770,-5.76330,-7.90097,0.04253,-0.06524,0.11112,0.09184,0.62820,-0.32611
0.09764,0.08713,-0.20376,0.71684,-5.76843,-7.89821,0.06580,-0.04526,0.11675,0.09051,0.62885,-0.32476
0.11778,0.03763,-0.15179,0.70703,-5.77489,-7.89438,0.07711,-0.03292,0.11367,0.08932,0.62967,-0.32342
0.08582,-0.06175,-0.08026,0.69724,-5.78160,-7.89033,0.07082,-0.04403,0.12691,0.08814,0.63051,-0.32202
0.11767,-0.09497,-0.02080,0.68454,-5.78774,-7.88695,0.06191,-0.08728,0.13848,0.08658,0.63129,-0.32046
0.06213,-0.11592,-0.03992,0.66855,-5.79342,-7.88414,0.05714,-0.11211,0.14331,0.08459,0.63201,-0.31880
0.02457,-0.12227,-0.07574,0.65119,-5.79874,-7.88168,0.04988,-0.10895,0.14983,0.08243,0.63268,-0.31703
-0.00054,-0.10179,-0.05096,0.63456,-5.80351,-7.87953,0.04366,-0.08700,0.15771,0.08036,0.63328,-0.31518
0.04879,-0.06625,-0.08635,0.61845,-5.80778,-7.87767,0.04061,-0.08534,0.16747,0.07835,0.63382,-0.31319
0.03567,-0.06974,-0.13633,0.60089,-5.81267,-7.87542,0.05896,-0.11316,0.16773,0.07615,0.63444,-0.31115
-0.05151,-0.11104,-0.19718,0.58183,-5.81880,-7.87232,0.07128,-0.12973,0.15373,0.07377,0.63522,-0.30921
-0.12929,-0.11837,-0.19076,0.56280,-5.82494,-7.86917,0.06003,-0.13597,0.13960,0.07140,0.63599,-0.30746
-0.10984,-0.16048,-0.10954,0.54379,-5.82921,-7.86734,0.02962,-0.13870,0.13284,0.06901,0.63654,-0.30581
-0.08943,-0.18248,-0.08174,0.52577,-5.83130,-7.86701,0.00686,-0.12822,0.12616,0.06673,0.63680,-0.30423
0.01684,-0.17200,-0.10728,0.50794,-5.83162,-7.86795,-0.01451,-0.13995,0.13673,0.06447,0.63684,-0.30261
0.17261,-0.13337,-0.06651,0.48639,-5.83073,-7.86997,-0.02486,-0.18426,0.16519,0.06172,0.63673,-0.30073
0.26265,-0.08303,-0.06926,0.46010,-5.82930,-7.87261,-0.02690,-0.22297,0.18638,0.05838,0.63655,-0.29852
0.21971,-0.09073,-0.08656,0.43002,-5.82789,-7.87536,-0.03074,-0.24673,0.20839,0.05455,0.63637,-0.29605
0.14884,-0.06454,-0.02402,0.39763,-5.82534,-7.87894,-0.05729,-0.26812,0.20568,0.05043,0.63605,-0.29345
0.07412,-0.06259,0.05788,0.36447,-5.82056,-7.88407,-0.08205,-0.26850,0.20706,0.04620,0.63544,-0.29085
0.05155,-0.05911,0.04014,0.33167,-5.81431,-7.89013,-0.09019,-0.26103,0.20498,0.04201,0.63465,-0.28827
0.07737,-0.02112,0.03430,0.29912,-5.80816,-7.89596,-0.08262,-0.26222,0.20883,0.03786,0.63387,-0.28568
0.09766,0.00621,0.01343,0.26641,-5.80272,-7.90113,-0.07072,-0.25752,0.21342,0.03371,0.63318,-0.28303
0.07274,0.02610,0.00878,0.23402,-5.79822,-7.90546,-0.05701,-0.25000,0.21147,0.02959,0.63261,-0.28037
0.00940,0.03854,0.01171,0.20249,-5.79480,-7.90884,-0.04192,-0.24083,0.20983,0.02560,0.63218,-0.27775
-0.04436,0.04541,0.02848,0.17275,-5.79269,-7.91109,-0.02025,-0.21354,0.19009,0.02183,0.63191,-0.27524
-0.18563,0.01556,-0.00459,0.14732,-5.79217,-7.91198,-0.00061,-0.16830,0.16495,0.01862,0.63185,-0.27305
-0.19629,-0.03611,-0.05237,0.12671,-5.79332,-7.91149,0.02466,-0.12731,0.14916,0.01601,0.63199,-0.27113
-0.07425,-0.08697,-0.07076,0.10881,-5.79633,-7.90956,0.04979,-0.11476,0.15202,0.01376,0.63237,-0.26931
0.08126,-0.08551,-0.10286,0.08978,-5.80124,-7.90620,0.07445,-0.14001,0.16833,0.01135,0.63299,-0.26734
0.15068,-0.05618,-0.08516,0.06615,-5.80782,-7.90160,0.08918,-0.19396,0.18929,0.00837,0.63383,-0.26513
0.18989,0.00908,0.00998,0.03786,-5.81502,-7.89648,0.08917,-0.21915,0.21243,0.00479,0.63474,-0.26264
0.15714,0.10026,0.14016,0.00761,-5.82165,-7.89169,0.07575,-0.22180,0.22215,0.00096,0.63558,-0.25992
-0.01844,0.18625,0.26835,-0.02256,-5.82654,-7.88805,0.04651,-0.21826,0.21554,-0.00286,0.63620,-0.25720
-0.14569,0.27437,0.40869,-0.05123,-5.82862,-7.88638,0.01166,-0.19735,0.19903,-0.00650,0.63646,-0.25462
-0.20817,0.31459,0.39908,-0.07644,-5.82859,-7.88620,-0.00875,-0.16500,0.17769,-0.00969,0.63646,-0.25228
-0.22901,0.33349,0.33662,-0.09840,-5.82713,-7.88703,-0.02075,-0.14988,0.16068,-0.01248,0.63627,-0.25021
-0.19441,0.38407,0.27828,-0.11908,-5.82550,-7.88795,-0.01477,-0.15121,0.14775,-0.01509,0.63607,-0.24832
-0.10461,0.36331,0.22135,-0.13960,-5.82493,-7.88803,0.00531,-0.15710,0.14705,-0.01770,0.63599,-0.24651
-0.08128,0.32833,0.23237,-0.16113,-5.82587,-7.88693,0.01823,-0.16753,0.14521,-0.02043,0.63611,-0.24467
-0.13691,0.31230,0.28863,-0.18182,-5.82749,-7.88528,0.02773,-0.14255,0.13804,-0.02305,0.63632,-0.24289
-0.20674,0.24658,0.28933,-0.19788,-5.82986,-7.88314,0.04086,-0.07724,0.11316,-0.02510,0.63662,-0.24131
-0.28049,0.15445,0.21666,-0.20762,-5.83349,-7.88020,0.05707,-0.02519,0.08990,-0.02634,0.63708,-0.24003
-0.20505,0.12276,0.20739,-0.21378,-5.83892,-7.87602,0.08258,-0.01382,0.07855,-0.02714,0.63777,-0.23895
-0.14305,0.07967,0.23215,-0.21997,-5.84566,-7.87085,0.09108,-0.03614,0.07273,-0.02794,0.63862,-0.23801
-0.02090,0.05056,0.28386,-0.22854,-5.85246,-7.86555,0.08705,-0.06240,0.08309,-0.02905,0.63949,-0.23703
0.06415,0.02805,0.33444,-0.23877,-5.85868,-7.86061,0.07712,-0.06649,0.09027,-0.03037,0.64028,-0.23591
-0.02652,-0.02142,0.35568,-0.24911,-5.86368,-7.85657,0.05208,-0.06179,0.08836,-0.03170,0.64091,-0.23476
-0.11593,-0.01550,0.39703,-0.25861,-5.86661,-7.85407,0.02434,-0.04653,0.08369,-0.03292,0.64129,-0.23366
-0.17442,-0.00042,0.40184,-0.26552,-5.86748,-7.85319,0.00460,-0.01159,0.07081,-0.03380,0.64140,-0.23269
-0.16963,-0.01048,0.32602,-0.26941,-5.86684,-7.85353,-0.01580,0.01896,0.07122,-0.03429,0.64132,-0.23182
-0.07697,-0.03141,0.28275,-0.27168,-5.86536,-7.85456,-0.01826,0.02775,0.07466,-0.03458,0.64113,-0.23093
-0.00727,-0.05409,0.19712,-0.27435,-5.86348,-7.85587,-0.02406,0.01532,0.07966,-0.03491,0.64089,-0.22999
0.08440,-0.07530,0.13935,-0.27892,-5.86127,-7.85736,-0.02647,-0.00023,0.09734,-0.03548,0.64061,-0.22889
0.15506,-0.06122,0.07253,-0.28584,-5.85904,-7.85877,-0.02208,-0.01804,0.11109,-0.03636,0.64032,-0.22760
0.10551,-0.06791,0.03847,-0.29525,-5.85729,-7.85973,-0.01216,-0.04416,0.11930,-0.03755,0.64010,-0.22616
0.03453,-0.02660,0.00847,-0.30567,-5.85625,-7.86011,-0.00309,-0.04154,0.11745,-0.03887,0.63997,-0.22469
-0.11450,0.01229,-0.01936,-0.31541,-5.85594,-7.85996,0.00171,-0.03947,0.10129,-0.04011,0.63993,-0.22331
-0.20762,0.07562,0.04879,-0.32419,-5.85537,-7.86002,-0.00884,-0.04572,0.08790,-0.04122,0.63986,-0.22215
-0.23425,0.12919,0.12999,-0.33243,-5.85358,-7.86101,-0.02520,-0.04149,0.07631,-0.04226,0.63963,-0.22115
-0.24023,0.17768,0.13591,-0.33961,-5.85104,-7.86259,-0.03077,-0.04137,0.06063,-0.04317,0.63931,-0.22031
-0.30365,0.21397,0.13831,-0.34638,-5.84842,-7.86424,-0.03131,-0.04776,0.04791,-0.04402,0.63898,-0.21963
-0.37381,0.28700,0.17575,-0.35268,-5.84559,-7.86607,-0.03561,-0.05658,0.02486,-0.04481,0.63862,-0.21919
-0.49219,0.35158,0.21937,-0.35805,-5.84254,-7.86810,-0.04303,-0.05973,-0.00510,-0.04548,0.63823,-0.21909
-0.60219,0.42258,0.23183,-0.36043,-5.83931,-7.87038,-0.04139,-0.04079,-0.04843,-0.04576,0.63782,-0.21943
-0.77269,0.47251,0.20540,-0.35872,-5.83672,-7.87238,-0.03179,-0.02295,-0.10192,-0.04554,0.63749,-0.22036
-0.90825,0.55945,0.20624,-0.35230,-5.83477,-7.87412,-0.03243,-0.00372,-0.15782,-0.04471,0.63724,-0.22199
-0.92319,0.61393,0.23249,-0.33975,-5.83180,-7.87687,-0.06878,0.05366,-0.22661,-0.04311,0.63686,-0.22438
1.78724,0.34129,0.50707,-0.35356,-5.82207,-7.88346,-0.14044,-0.26766,0.33158,-0.04482,0.63563,-0.22269
3.70468,-1.72224,0.47880,-0.38512,-5.81396,-7.88796,-0.05827,-0.24096,0.09501,-0.04878,0.63460,-0.22071
-0.90971,-0.13956,-0.29432,-0.41623,-5.80809,-7.89070,-0.08254,-0.29846,0.18938,-0.05270,0.63386,-0.21863
0.66554,0.32800,0.57546,-0.44917,-5.79920,-7.89544,-0.12494,-0.31227,0.07588,-0.05683,0.63274,-0.21704
-1.22276,0.10051,0.06328,-0.46635,-5.78883,-7.90205,-0.13142,-0.07427,-0.01734,-0.05895,0.63143,-0.21677
-1.15415,0.23210,-0.25527,-0.46269,-5.77886,-7.90955,-0.12675,0.07982,-0.07618,-0.05843,0.63017,-0.21750
-0.63481,0.20524,-0.31192,-0.44766,-5.77011,-7.91680,-0.09841,0.18085,-0.08443,-0.05649,0.62906,-0.21857
-0.12192,0.03542,-0.62539,-0.42740,-5.76504,-7.92161,-0.03649,0.20525,-0.06141,-0.05390,0.62842,-0.21954
0.08101,-0.14376,-0.69615,-0.41156,-5.76453,-7.92283,0.01489,0.12306,-0.03003,-0.05190,0.62836,-0.22011
0.15202,-0.05036,-0.43963,-0.40431,-5.76725,-7.92122,0.05214,0.03995,-0.00891,-0.05100,0.62870,-0.22032
0.00514,-0.05917,-0.22212,-0.40183,-5.77161,-7.91817,0.05278,0.02015,-0.00670,-0.05070,0.62925,-0.22038
-0.15696,-0.06415,0.03755,-0.39924,-5.77501,-7.91582,0.03110,0.03308,-0.01135,-0.05039,0.62968,-0.22045
-0.25397,-0.00820,0.24854,-0.39561,-5.77650,-7.91492,0.00561,0.02853,-0.02320,-0.04994,0.62987,-0.22066
-0.27062,0.02241,0.31876,-0.39272,-5.77643,-7.91512,-0.00938,0.00641,-0.02554,-0.04958,0.62986,-0.22097
-0.17288,-0.01768,0.28801,-0.39155,-5.77599,-7.91549,-0.00327,-0.01797,-0.02897,-0.04943,0.62981,-0.22132
-0.04305,-0.05059,0.26178,-0.39165,-5.77585,-7.91559,-0.00322,-0.02912,-0.03151,-0.04944,0.62979,-0.22170
0.04083,-0.05742,0.26780,-0.39218,-5.77575,-7.91563,-0.00224,-0.02794,-0.02909,-0.04950,0.62978,-0.22207
0.17030,-0.07278,0.27738,-0.39206,-5.77536,-7.91593,-0.01224,-0.00404,-0.02382,-0.04949,0.62972,-0.22240
0.24699,-0.07749,0.22410,-0.38974,-5.77409,-7.91697,-0.02184,0.02889,-0.01801,-0.04919,0.62957,-0.22267
0.22182,-0.07000,0.09737,-0.38627,-5.77246,-7.91833,-0.02072,0.03080,-0.01722,-0.04874,0.62936,-0.22290
0.13725,0.00259,0.03435,-0.38296,-5.77127,-7.91935,-0.01143,0.01853,-0.02791,-0.04832,0.62921,-0.22318
0.00777,0.03631,-0.01528,-0.37946,-5.77102,-7.91970,0.00317,0.02213,-0.03863,-0.04788,0.62918,-0.22358
-0.02791,0.06213,-0.07238,-0.37492,-5.77185,-7.91931,0.01247,0.03312,-0.04640,-0.04731,0.62928,-0.22410
0.04633,0.04809,-0.09892,-0.36910,-5.77353,-7.91837,0.02467,0.04975,-0.04308,-0.04658,0.62949,-0.22465
0.12676,-0.00019,-0.16491,-0.36244,-5.77642,-7.91656,0.04269,0.06144,-0.03238,-0.04575,0.62986,-0.22509
0.13874,-0.02380,-0.17624,-0.35586,-5.78005,-7.91422,0.04208,0.07568,-0.02156,-0.04493,0.63032,-0.22539
0.15908,-0.05872,-0.04637,-0.34807,-5.78238,-7.91286,0.01591,0.09208,-0.00138,-0.04396,0.63061,-0.22553
0.19342,-0.12207,0.04928,-0.34321,-5.78263,-7.91289,-0.00682,0.03804,0.02026,-0.04335,0.63064,-0.22541
0.24055,-0.18110,0.02014,-0.34484,-5.78166,-7.91352,-0.01603,-0.03183,0.04267,-0.04355,0.63052,-0.22504
0.25829,-0.18822,-0.01438,-0.35241,-5.78052,-7.91402,-0.00953,-0.06888,0.06660,-0.04450,0.63038,-0.22435
0.21679,-0.16967,-0.03784,-0.36134,-5.77932,-7.91450,-0.01463,-0.04561,0.07598,-0.04562,0.63023,-0.22346
0.11143,-0.14199,-0.06157,-0.36821,-5.77798,-7.91516,-0.01305,-0.01224,0.07814,-0.04649,0.63006,-0.22250
0.00330,-0.10119,-0.05664,-0.37276,-5.77687,-7.91576,-0.00462,-0.00146,0.06497,-0.04706,0.62992,-0.22162
-0.08658,-0.05769,-0.07662,-0.37595,-5.77698,-7.91552,0.01354,-0.00026,0.04633,-0.04746,0.62993,-0.22094
-0.10722,-0.01084,-0.07543,-0.37806,-5.77849,-7.91432,0.03010,0.00560,0.03533,-0.04773,0.63012,-0.22043
-0.05917,0.01449,-0.07099,-0.37897,-5.78137,-7.91217,0.04510,0.01919,0.02963,-0.04786,0.63048,-0.22001
0.00357,0.01734,-0.05901,-0.37946,-5.78543,-7.90919,0.05855,0.01093,0.03008,-0.04794,0.63100,-0.21961
0.05378,0.05033,0.00010,-0.38088,-5.79043,-7.90546,0.07287,-0.00219,0.03283,-0.04814,0.63163,-0.21919
0.02783,0.10025,0.06539,-0.38352,-5.79591,-7.90131,0.06844,-0.01318,0.03109,-0.04850,0.63232,-0.21874
-0.06855,0.08994,0.14021,-0.38575,-5.80086,-7.89757,0.05807,-0.00707,0.01760,-0.04881,0.63295,-0.21840
-0.12561,0.10900,0.22108,-0.38615,-5.80481,-7.89465,0.03983,0.01773,0.00892,-0.04887,0.63345,-0.21821
-0.10069,0.13610,0.27285,-0.38444,-5.80737,-7.89285,0.02318,0.03782,0.00540,-0.04867,0.63377,-0.21810
-0.05374,0.09969,0.24550,-0.38185,-5.80852,-7.89213,0.00847,0.03841,0.00459,-0.04835,0.63392,-0.21801
-0.08261,0.07200,0.21565,-0.37962,-5.80896,-7.89191,0.00287,0.02494,0.00764,-0.04807,0.63397,-0.21793
-0.12447,0.04408,0.20676,-0.37846,-5.80872,-7.89214,-0.00768,0.01396,0.00527,-0.04792,0.63394,-0.21786
-0.13575,0.05036,0.19302,-0.37750,-5.80752,-7.89307,-0.02612,0.02103,0.00608,-0.04779,0.63379,-0.21780
-0.11549,0.03795,0.16945,-0.37577,-5.80468,-7.89524,-0.04534,0.03091,0.00954,-0.04756,0.63343,-0.21773
-0.06672,0.01604,0.09984,-0.37382,-5.80058,-7.89835,-0.05594,0.02843,0.01112,-0.04729,0.63291,-0.21763
-0.05378,0.02262,0.02153,-0.37254,-5.79624,-7.90159,-0.05350,0.02269,0.01181,-0.04711,0.63236,-0.21751
-0.06462,0.03084,-0.06896,-0.37158,-5.79278,-7.90418,-0.03217,0.01970,0.01263,-0.04698,0.63193,-0.21739
-0.05520,0.03917,-0.14954,-0.37067,-5.79110,-7.90545,-0.00734,0.01499,0.00838,-0.04685,0.63171,-0.21728
-0.07814,0.04373,-0.15548,-0.36958,-5.79132,-7.90534,0.01111,0.01523,-0.00309,-0.04672,0.63174,-0.21725
-0.08698,0.05247,-0.11913,-0.36792,-5.79287,-7.90428,0.02652,0.01717,-0.01434,-0.04651,0.63194,-0.21733
-0.08377,0.02048,-0.09849,-0.36515,-5.79529,-7.90263,0.03059,0.02631,-0.02303,-0.04617,0.63224,-0.21754
0.02012,-0.02178,-0.07691,-0.36159,-5.79793,-7.90086,0.03594,0.03325,-0.01351,-0.04573,0.63258,-0.21775
0.10897,-0.04836,-0.02515,-0.35887,-5.80097,-7.89875,0.04013,0.02282,-0.00601,-0.04540,0.63296,-0.21784
0.09401,-0.04510,-0.01883,-0.35782,-5.80424,-7.89640,0.04242,0.00057,0.00171,-0.04528,0.63337,-0.21784
0.08786,-0.04583,0.05076,-0.35855,-5.80724,-7.89416,0.03380,-0.00638,0.01100,-0.04539,0.63375,-0.21774
0.11847,-0.04966,0.08408,-0.35983,-5.80925,-7.89262,0.01993,0.00044,0.01922,-0.04556,0.63401,-0.21751
0.06430,-0.05355,0.09037,-0.36073,-5.81000,-7.89203,0.00199,0.00819,0.01720,-0.04568,0.63410,-0.21727
-0.00380,-0.04131,0.07486,-0.36087,-5.80952,-7.89238,-0.00819,0.01310,0.01687,-0.04569,0.63404,-0.21707
0.00384,-0.04587,0.00151,-0.36073,-5.80855,-7.89310,-0.01270,0.01161,0.01365,-0.04567,0.63392,-0.21688
0.00177,-0.02994,-0.02727,-0.36120,-5.80758,-7.89379,-0.00968,-0.00307,0.01109,-0.04573,0.63380,-0.21672
-0.03458,-0.02704,-0.03362,-0.36226,-5.80718,-7.89403,0.00269,-0.00851,0.00700,-0.04586,0.63375,-0.21661
-0.05469,-0.00523,-0.04729,-0.36340,-5.80760,-7.89368,0.00948,-0.00492,0.00802,-0.04600,0.63380,-0.21651
-0.04527,0.01973,-0.01966,-0.36369,-5.80847,-7.89302,0.01201,0.00663,0.00753,-0.04605,0.63391,-0.21642
-0.00315,0.05587,-0.00312,-0.36347,-5.80959,-7.89221,0.01635,0.01259,0.01366,-0.04602,0.63405,-0.21628
-0.03980,0.04135,0.03002,-0.36332,-5.81093,-7.89123,0.01696,0.00536,0.00810,-0.04601,0.63422,-0.21614
-0.04343,0.04373,0.05197,-0.36343,-5.81241,-7.89013,0.01893,0.00079,0.00774,-0.04603,0.63441,-0.21605
0.04293,0.03737,0.05861,-0.36450,-5.81368,-7.88915,0.01269,-0.00886,0.01586,-0.04617,0.63457,-0.21590
0.02359,0.04509,0.08529,-0.36656,-5.81452,-7.88844,0.01112,-0.01999,0.01378,-0.04643,0.63467,-0.21571
-0.08659,0.06762,0.10846,-0.36905,-5.81520,-7.88782,0.00785,-0.02258,0.01178,-0.04675,0.63476,-0.21554
-0.16763,0.06635,0.13129,-0.37152,-5.81573,-7.88731,0.00787,-0.02380,0.00939,-0.04707,0.63483,-0.21542
-0.24613,0.09384,0.18912,-0.37337,-5.81613,-7.88693,-0.00184,-0.01180,0.00351,-0.04730,0.63488,-0.21532
-0.27666,0.12752,0.21570,-0.37427,-5.81554,-7.88732,-0.01217,-0.00794,0.00168,-0.04742,0.63480,-0.21531
-0.29451,0.13567,0.19385,-0.37511,-5.81427,-7.88821,-0.02103,-0.02106,-0.01131,-0.04752,0.63464,-0.21537
-0.32222,0.14891,0.10313,-0.37599,-5.81284,-7.88922,-0.01855,-0.02376,-0.02241,-0.04762,0.63446,-0.21559
-0.29928,0.15303,0.02912,-0.37558,-5.81157,-7.89018,-0.01606,-0.00849,-0.03861,-0.04757,0.63430,-0.21598
-0.22047,0.13319,-0.04223,-0.37284,-5.81029,-7.89125,-0.02143,0.01290,-0.04519,-0.04721,0.63414,-0.21653
-0.09784,0.09410,-0.11098,-0.36903,-5.80921,-7.89223,-0.01120,0.01978,-0.03233,-0.04672,0.63400,-0.21704
0.16030,0.05023,-0.17676,-0.36635,-5.80889,-7.89259,0.00019,0.00896,-0.02078,-0.04638,0.63396,-0.21735
0.10408,0.02006,-0.16544,-0.36490,-5.80925,-7.89240,0.00758,0.00070,-0.02264,-0.04620,0.63401,-0.21761
-0.06538,0.09618,-0.02942,-0.36348,-5.80994,-7.89195,0.00585,-0.00264,-0.03531,-0.04603,0.63410,-0.21794
-0.19480,0.09596,0.07828,-0.36080,-5.81017,-7.89190,-0.00365,0.00285,-0.05357,-0.04569,0.63412,-0.21850
-0.24515,0.11662,0.09002,-0.35729,-5.80988,-7.89228,-0.00874,-0.00461,-0.07312,-0.04524,0.63409,-0.21928
-0.20126,0.11269,0.05144,-0.35315,-5.80970,-7.89260,-0.00401,-0.00615,-0.08821,-0.04471,0.63406,-0.22027
-0.11620,0.08195,-0.00866,-0.34813,-5.80992,-7.89265,0.00225,0.00257,-0.09261,-0.04408,0.63409,-0.22139
-0.05724,0.08054,-0.04382,-0.34244,-5.81046,-7.89251,0.00879,0.00589,-0.08858,-0.04336,0.63416,-0.22252
0.00589,0.08013,-0.05925,-0.33704,-5.81140,-7.89205,0.00987,-0.00000,-0.08397,-0.04268,0.63428,-0.22360
0.62450,0.06899,-0.04591,-0.34827,-5.81133,-7.89161,-0.00448,-0.29188,0.43076,-0.04410,0.63427,-0.22269
5.68001,-1.52564,0.25531,-0.38313,-5.80974,-7.89117,-0.00401,-0.05637,0.21281,-0.04851,0.63407,-0.21890
-0.71671,-1.22846,0.54463,-0.39689,-5.80526,-7.89378,-0.09782,0.07432,0.29651,-0.05024,0.63350,-0.21564
0.94254,0.01707,1.49732,-0.40939,-5.79203,-7.90286,-0.19922,-0.04673,0.18617,-0.05176,0.63183,-0.21265
-0.66706,-0.10237,0.75205,-0.42589,-5.77540,-7.91415,-0.19455,-0.16262,0.10038,-0.05376,0.62973,-0.21105
-0.95849,-0.00813,-0.16605,-0.44466,-5.76175,-7.92306,-0.14187,-0.19096,0.03697,-0.05606,0.62801,-0.21033
-0.76847,0.26950,-0.39955,-0.45542,-5.75297,-7.92883,-0.07315,-0.05119,-0.01184,-0.05738,0.62690,-0.21026
-0.51003,0.21403,-0.72233,-0.45244,-5.75033,-7.93092,0.00717,0.09382,-0.01400,-0.05699,0.62657,-0.21047
-0.36143,0.08316,-0.82624,-0.44213,-5.75308,-7.92950,0.06019,0.14181,-0.00386,-0.05570,0.62692,-0.21055
-0.28261,0.20197,-0.57762,-0.43116,-5.75876,-7.92598,0.07780,0.12836,-0.00003,-0.05434,0.62763,-0.21051
-0.33225,0.20536,-0.25810,-0.42237,-5.76470,-7.92214,0.06972,0.10116,0.00593,-0.05326,0.62838,-0.21042
-0.44399,0.15652,0.03180,-0.41463,-5.76868,-7.91964,0.02933,0.10083,-0.00275,-0.05231,0.62888,-0.21037
-0.53841,0.16165,0.23573,-0.40625,-5.76932,-7.91962,-0.01288,0.09443,-0.01556,-0.05125,0.62896,-0.21050
-0.50681,0.15578,0.31737,-0.39879,-5.76704,-7.92165,-0.04566,0.06451,-0.02080,-0.05030,0.62868,-0.21075
-0.41073,0.11468,0.26993,-0.39403,-5.76306,-7.92479,-0.05665,0.02048,-0.02736,-0.04968,0.62817,-0.21109
-0.27562,0.07807,0.13865,-0.39236,-5.75892,-7.92788,-0.04866,-0.01590,-0.02573,-0.04945,0.62765,-0.21145
-0.13303,0.11691,-0.03476,-0.39309,-5.75615,-7.92985,-0.02222,-0.03311,-0.02312,-0.04953,0.62730,-0.21176
-0.01029,0.12842,-0.12514,-0.39463,-5.75584,-7.93000,0.01232,-0.03921,-0.02444,-0.04972,0.62727,-0.21205
0.03561,0.13379,-0.13545,-0.39653,-5.75837,-7.92807,0.04662,-0.04944,-0.03206,-0.04997,0.62758,-0.21238
0.02446,0.11846,-0.06539,-0.39825,-5.76295,-7.92466,0.06382,-0.04722,-0.04493,-0.05021,0.62816,-0.21282
0.06755,0.09010,0.02609,-0.39855,-5.76840,-7.92067,0.06619,-0.02393,-0.04792,-0.05028,0.62885,-0.21336
0.19349,0.00855,0.07739,-0.39685,-5.77349,-7.91706,0.05711,0.00328,-0.04045,-0.05008,0.62949,-0.21389
0.29938,-0.04636,0.15182,-0.39425,-5.77768,-7.91412,0.04392,0.00757,-0.02961,-0.04978,0.63002,-0.21428
0.22722,-0.07224,0.21600,-0.39257,-5.78068,-7.91201,0.02850,0.00063,-0.02082,-0.04958,0.63040,-0.21458
0.12557,-0.07995,0.26040,-0.39147,-5.78225,-7.91092,0.00730,0.00098,-0.01634,-0.04944,0.63060,-0.21479
0.08858,-0.11202,0.28514,-0.39040,-5.78206,-7.91112,-0.01512,0.00529,-0.01304,-0.04931,0.63057,-0.21497
0.04759,-0.15023,0.23316,-0.38921,-5.78036,-7.91242,-0.02729,0.00565,-0.00654,-0.04915,0.63036,-0.21510
0.04982,-0.19538,0.17833,-0.38830,-5.77785,-7.91429,-0.03582,0.00793,-0.00734,-0.04902,0.63004,-0.21521
0.07878,-0.20072,0.11768,-0.38733,-5.77490,-7.91649,-0.03794,0.01723,-0.00040,-0.04889,0.62967,-0.21526
0.13168,-0.21112,-0.00383,-0.38576,-5.77214,-7.91858,-0.03395,0.02853,0.00531,-0.04868,0.62932,-0.21524
0.07180,-0.15994,-0.06763,-0.38349,-5.76990,-7.92033,-0.02377,0.03377,0.00297,-0.04838,0.62904,-0.21520
-0.01062,-0.06350,-0.11666,-0.38053,-5.76818,-7.92172,-0.01858,0.03559,-0.00297,-0.04800,0.62882,-0.21523
-0.05481,0.00254,-0.12765,-0.37764,-5.76703,-7.92270,-0.01315,0.03137,-0.00354,-0.04763,0.62867,-0.21527
-0.10607,0.07079,-0.14075,-0.37501,-5.76690,-7.92292,0.00244,0.02870,-0.00502,-0.04730,0.62866,-0.21532
-0.08472,0.11662,-0.10763,-0.37272,-5.76739,-7.92267,0.00504,0.02635,0.00031,-0.04701,0.62872,-0.21534
-0.06379,0.13896,-0.06806,-0.37091,-5.76803,-7.92229,0.00684,0.01561,0.00085,-0.04678,0.62880,-0.21533
-0.05419,0.12827,-0.04737,-0.37003,-5.76886,-7.92173,0.00924,0.00929,0.00279,-0.04668,0.62891,-0.21529
-0.04760,0.11590,0.02328,-0.36973,-5.76966,-7.92115,0.00951,0.00098,-0.00169,-0.04664,0.62901,-0.21527
-0.05768,0.08467,0.04334,-0.36939,-5.77030,-7.92071,0.00737,0.00529,-0.00369,-0.04660,0.62909,-0.21528
-0.07758,0.04384,0.04108,-0.36864,-5.77077,-7.92039,0.00693,0.01156,-0.00713,-0.04651,0.62915,-0.21533
-0.08734,0.01726,0.02535,-0.36681,-5.77112,-7.92023,0.00328,0.02070,-0.01103,-0.04628,0.62919,-0.21545
-0.09610,-0.01413,0.03540,-0.36403,-5.77146,-7.92011,0.00221,0.02895,-0.01723,-0.04593,0.62923,-0.21562
-0.07314,-0.03467,0.03788,-0.36066,-5.77157,-7.92019,0.00222,0.03172,-0.01809,-0.04551,0.62925,-0.21584
-0.02301,-0.08129,0.03170,-0.35722,-5.77163,-7.92029,-0.00106,0.03262,-0.01659,-0.04507,0.62926,-0.21605
0.03776,-0.11509,0.03921,-0.35349,-5.77120,-7.92077,-0.01036,0.03782,-0.01490,-0.04460,0.62920,-0.21625
0.08995,-0.13622,0.06974,-0.34822,-5.76967,-7.92212,-0.03081,0.07547,-0.00712,-0.04393,0.62901,-0.21638
0.12194,-0.12587,0.18960,-0.34266,-5.76671,-7.92452,-0.04120,0.05738,0.00578,-0.04321,0.62863,-0.21641
0.18914,-0.11189,0.11223,-0.34102,-5.76333,-7.92705,-0.03899,0.00731,0.02274,-0.04299,0.62821,-0.21626
0.19558,-0.11490,0.07326,-0.34357,-5.76017,-7.92923,-0.03525,-0.02990,0.03166,-0.04330,0.62781,-0.21594
0.14361,-0.05676,0.09742,-0.34831,-5.75712,-7.93125,-0.03844,-0.03129,0.03877,-0.04389,0.62743,-0.21551
0.05656,0.00053,0.10027,-0.35180,-5.75380,-7.93350,-0.04203,-0.00012,0.03671,-0.04431,0.62701,-0.21506
-0.02451,0.00441,0.09979,-0.35257,-5.75050,-7.93586,-0.04012,0.02818,0.02445,-0.04440,0.62659,-0.21470
-0.05333,0.01885,0.08518,-0.35084,-5.74743,-7.93816,-0.03595,0.04391,0.01894,-0.04417,0.62621,-0.21445
0.02683,0.00284,0.06518,-0.34885,-5.74459,-7.94030,-0.03353,0.03492,0.02171,-0.04391,0.62585,-0.21422
0.14165,-0.00924,0.02244,-0.34874,-5.74224,-7.94201,-0.02391,0.00792,0.03918,-0.04388,0.62555,-0.21386
0.21187,-0.01238,-0.01055,-0.35208,-5.74088,-7.94284,-0.00742,-0.02559,0.05429,-0.04430,0.62538,-0.21329
0.12262,-0.00664,-0.01144,-0.35815,-5.74049,-7.94285,0.00105,-0.04127,0.06067,-0.04506,0.62533,-0.21258
-0.00583,0.00048,-0.01298,-0.36437,-5.74058,-7.94250,0.00231,-0.02615,0.05177,-0.04584,0.62534,-0.21186
-0.13357,0.00594,0.02288,-0.36757,-5.74065,-7.94230,0.00120,0.01380,0.03932,-0.04625,0.62535,-0.21128
-0.18351,-0.02843,0.03203,-0.36685,-5.74025,-7.94262,-0.00645,0.04883,0.02617,-0.04616,0.62530,-0.21089
-0.15467,-0.09020,-0.01216,-0.36397,-5.73968,-7.94317,-0.00578,0.05421,0.02106,-0.04579,0.62523,-0.21060
-0.01637,-0.08373,-0.04829,-0.36206,-5.73927,-7.94356,-0.00378,0.02492,0.02858,-0.04555,0.62518,-0.21031
0.09387,-0.07609,-0.07840,-0.36337,-5.73882,-7.94382,-0.00411,-0.00789,0.04126,-0.04571,0.62512,-0.20988
0.14878,-0.09025,-0.09139,-0.36740,-5.73873,-7.94370,0.00289,-0.02132,0.05694,-0.04622,0.62511,-0.20927
0.09550,-0.06393,-0.11084,-0.37263,-5.73901,-7.94325,0.00932,-0.01958,0.06775,-0.04688,0.62515,-0.20849
0.03484,-0.01035,-0.09055,-0.37796,-5.73978,-7.94245,0.01699,-0.01594,0.06783,-0.04755,0.62524,-0.20764
-0.06858,0.04231,-0.06901,-0.38228,-5.74096,-7.94139,0.02085,-0.00146,0.06076,-0.04810,0.62539,-0.20686
-0.14002,0.05256,-0.04299,-0.38476,-5.74268,-7.94002,0.02900,0.01392,0.04762,-0.04842,0.62561,-0.20618
-0.14855,0.04540,-0.02802,-0.38550,-5.74510,-7.93824,0.03596,0.02676,0.03568,-0.04852,0.62591,-0.20566
-0.06856,0.05994,-0.03896,-0.38529,-5.74782,-7.93628,0.03833,0.02847,0.03491,-0.04851,0.62625,-0.20521
0.05776,0.01524,-0.00553,-0.38562,-5.75041,-7.93439,0.03096,0.01917,0.04270,-0.04856,0.62658,-0.20471
0.15670,-0.00253,0.04737,-0.38819,-5.75239,-7.93283,0.02556,-0.00791,0.05988,-0.04890,0.62683,-0.20405
0.11000,0.00177,0.08494,-0.39327,-5.75369,-7.93163,0.01290,-0.02749,0.06926,-0.04954,0.62699,-0.20324
0.01315,0.01008,0.09202,-0.39951,-5.75422,-7.93093,0.00377,-0.02729,0.07090,-0.05033,0.62706,-0.20237
-0.05910,0.04209,0.11070,-0.40522,-5.75406,-7.93076,-0.00556,-0.01927,0.06487,-0.05105,0.62704,-0.20155
-0.14163,0.06124,0.10796,-0.40934,-5.75301,-7.93131,-0.01291,0.00218,0.05424,-0.05156,0.62691,-0.20084
-0.14472,0.06534,0.09364,-0.41119,-5.75157,-7.93226,-0.01930,0.02078,0.04347,-0.05179,0.62673,-0.20025
-0.13945,0.02304,0.01843,-0.41226,-5.74997,-7.93336,-0.01492,0.00610,0.03537,-0.05192,0.62653,-0.19977
-0.08189,0.03064,-0.07131,-0.41460,-5.74934,-7.93370,0.00425,-0.00962,0.03593,-0.05221,0.62645,-0.19935
0.00234,0.03193,-0.13884,-0.41804,-5.75018,-7.93291,0.02103,-0.01709,0.04194,-0.05265,0.62655,-0.19886
0.02304,0.03641,-0.09441,-0.42212,-5.75197,-7.93140,0.02756,-0.01830,0.04950,-0.05317,0.62678,-0.19827
0.00998,0.07275,-0.01644,-0.42657,-5.75389,-7.92977,0.02485,-0.01870,0.05525,-0.05374,0.62702,-0.19762
-0.03575,0.08675,0.05143,-0.43141,-5.75548,-7.92835,0.01987,-0.01665,0.05861,-0.05436,0.62722,-0.19689
-0.06733,0.08209,0.10691,-0.43605,-5.75620,-7.92757,0.00511,-0.01654,0.05287,-0.05495,0.62731,-0.19621
-0.08486,0.08422,0.15649,-0.43992,-5.75564,-7.92777,-0.01299,-0.00460,0.05058,-0.05543,0.62724,-0.19557
-0.09895,0.08877,0.15164,-0.44289,-5.75405,-7.92875,-0.02369,-0.00122,0.04652,-0.05580,0.62704,-0.19499
-0.05907,0.12817,0.16142,-0.44625,-5.75185,-7.93016,-0.02920,-0.01043,0.04959,-0.05621,0.62676,-0.19439
-0.01608,0.12311,0.16882,-0.45034,-5.74918,-7.93186,-0.03235,-0.01494,0.05718,-0.05672,0.62643,-0.19374
-0.03424,0.11861,0.15274,-0.45553,-5.74619,-7.93374,-0.03901,-0.03402,0.05153,-0.05735,0.62605,-0.19306
-0.16599,0.18887,0.18566,-0.46174,-5.74237,-7.93614,-0.04612,-0.04633,0.05440,-0.05812,0.62557,-0.19249
-0.24777,0.17371,0.18227,-0.46809,-5.73828,-7.93873,-0.05209,-0.04265,0.03958,-0.05889,0.62505,-0.19190
-0.54112,0.25781,0.13611,-0.47387,-5.72856,-7.94540,-0.06632,-0.01119,-0.02343,-0.05957,0.62383,-0.19182
-0.45849,0.19270,0.16081,-0.47256,-5.73363,-7.94182,-0.05942,-0.03351,0.00642,-0.05943,0.62447,-0.19166
-0.52125,0.21804,0.02326,-0.47159,-5.72380,-7.94896,-0.05832,0.01306,-0.05272,-0.05926,0.62324,-0.19234
-0.40514,0.23190,-0.09794,-0.46665,-5.72046,-7.95166,-0.03308,0.01761,-0.06991,-0.05862,0.62282,-0.19314
-0.25068,0.20027,-0.17305,-0.46219,-5.71935,-7.95272,-0.00424,-0.01899,-0.06537,-0.05805,0.62268,-0.19403
3.30958,-0.21587,-0.10190,-0.49101,-5.71935,-7.95099,0.02299,-0.25200,0.26759,-0.06168,0.62268,-0.19165
1.21423,-1.38175,0.21346,-0.50884,-5.71915,-7.95002,-0.02391,0.05834,0.17659,-0.06392,0.62265,-0.18921
0.16330,-0.06401,0.92368,-0.51226,-5.71170,-7.95515,-0.13393,0.08909,0.18167,-0.06430,0.62172,-0.18694
0.12991,0.00915,1.13276,-0.51837,-5.69837,-7.96431,-0.17344,-0.03226,0.11332,-0.06499,0.62005,-0.18528
-0.92292,-0.04971,0.38482,-0.52916,-5.68425,-7.97369,-0.16707,-0.14923,0.01398,-0.06627,0.61828,-0.18464
-0.94083,0.23669,-0.06744,-0.54417,-5.67197,-7.98141,-0.13941,-0.22211,-0.02645,-0.06807,0.61674,-0.18489
-0.49595,0.17335,-0.29281,-0.55631,-5.66281,-7.98708,-0.09329,-0.10150,-0.02622,-0.06954,0.61560,-0.18533
-0.21904,-0.05718,-0.55028,-0.55624,-5.65703,-7.99118,-0.05631,0.05109,-0.02520,-0.06949,0.61487,-0.18571
-0.17740,-0.11298,-0.56999,-0.54924,-5.65405,-7.99377,-0.02153,0.08475,-0.01395,-0.06860,0.61450,-0.18597
-0.22798,-0.01954,-0.49108,-0.54311,-5.65353,-7.99456,0.00559,0.05541,-0.00952,-0.06783,0.61444,-0.18610
-0.33419,-0.02148,-0.41540,-0.53834,-5.65487,-7.99393,0.02458,0.05301,-0.00975,-0.06724,0.61461,-0.18620
-0.35352,-0.02284,-0.22572,-0.53293,-5.65695,-7.99282,0.02125,0.06628,-0.01401,-0.06658,0.61487,-0.18633
-0.31138,0.05675,-0.04259,-0.52689,-5.65798,-7.99250,0.00382,0.05732,-0.02234,-0.06583,0.61499,-0.18653
-0.30652,0.04841,0.06101,-0.52202,-5.65773,-7.99300,-0.01285,0.02865,-0.03006,-0.06522,0.61496,-0.18686
-0.26647,0.05484,0.10558,-0.51868,-5.65638,-7.99417,-0.02519,0.00705,-0.04174,-0.06479,0.61479,-0.18731
-0.15708,0.06332,0.07811,-0.51540,-5.65468,-7.99558,-0.02313,0.01237,-0.04911,-0.06437,0.61458,-0.18790
0.09321,0.03466,0.00236,-0.51100,-5.65385,-7.99645,-0.00469,0.03066,-0.04090,-0.06382,0.61448,-0.18846
0.31987,-0.00630,-0.00935,-0.50692,-5.65449,-7.99626,0.01690,0.01637,-0.03006,-0.06331,0.61456,-0.18889
0.35208,0.00683,0.03704,-0.50546,-5.65715,-7.99447,0.04717,-0.01567,-0.02224,-0.06314,0.61489,-0.18919
0.35026,0.00546,0.09096,-0.50604,-5.66146,-7.99138,0.05851,-0.02453,-0.01465,-0.06324,0.61543,-0.18939
0.32289,-0.04510,0.17821,-0.50679,-5.66582,-7.98824,0.04753,-0.01056,-0.00869,-0.06336,0.61597,-0.18950
0.30008,-0.05489,0.26535,-0.50628,-5.66875,-7.98620,0.02482,0.01651,0.00207,-0.06331,0.61634,-0.18953
0.25983,-0.09781,0.29277,-0.50479,-5.66967,-7.98564,-0.00183,0.03336,0.01567,-0.06313,0.61645,-0.18940
0.15601,-0.12579,0.28192,-0.50347,-5.66863,-7.98646,-0.02112,0.02640,0.02086,-0.06296,0.61632,-0.18918
0.04143,-0.10067,0.26849,-0.50262,-5.66591,-7.98844,-0.04357,0.02997,0.02498,-0.06284,0.61598,-0.18892
-0.03172,-0.07853,0.26938,-0.50173,-5.66156,-7.99158,-0.06304,0.02653,0.02125,-0.06270,0.61544,-0.18867
-0.18865,-0.07342,0.21820,-0.50058,-5.65576,-7.99576,-0.07786,0.02471,0.01042,-0.06252,0.61472,-0.18853
-0.26520,-0.01613,0.12961,-0.49870,-5.64915,-8.00055,-0.08374,0.03169,-0.00236,-0.06225,0.61389,-0.18853
-0.25309,0.00445,0.00922,-0.49510,-5.64280,-8.00525,-0.07548,0.04783,-0.01358,-0.06177,0.61310,-0.18870
-0.14209,0.02444,-0.12022,-0.48953,-5.63735,-8.00944,-0.05943,0.06707,-0.01757,-0.06104,0.61242,-0.18895
-0.06703,0.06454,-0.19812,-0.48319,-5.63376,-8.01235,-0.03057,0.06685,-0.01226,-0.06023,0.61197,-0.18916
0.01241,0.04851,-0.21586,-0.47809,-5.63239,-8.01361,-0.00737,0.04237,-0.00896,-0.05959,0.61180,-0.18930
0.04959,0.03853,-0.19670,-0.47576,-5.63259,-8.01362,0.00920,0.01013,-0.00133,-0.05930,0.61183,-0.18936
0.10200,0.06331,-0.14581,-0.47549,-5.63387,-8.01273,0.02218,0.00019,0.00523,-0.05927,0.61199,-0.18933
0.08050,0.02985,-0.12989,-0.47585,-5.63587,-8.01130,0.02840,0.00473,0.01130,-0.05933,0.61224,-0.18921
0.06968,0.01673,-0.07188,-0.47579,-5.63787,-8.00989,0.02049,0.01387,0.01468,-0.05933,0.61249,-0.18903
0.03621,0.00880,-0.01705,-0.47569,-5.63906,-8.00906,0.01093,0.01083,0.01688,-0.05932,0.61263,-0.18881
-0.00856,0.00376,-0.00051,-0.47642,-5.64016,-8.00825,0.01568,-0.00126,0.02117,-0.05942,0.61277,-0.18855
-0.02408,-0.02223,0.00555,-0.47811,-5.64141,-8.00727,0.01349,-0.01058,0.01479,-0.05964,0.61293,-0.18831
-0.05522,-0.00876,0.00813,-0.47943,-5.64231,-8.00655,0.01118,-0.00297,0.01007,-0.05981,0.61304,-0.18814
-0.04265,-0.00067,-0.00470,-0.47974,-5.64307,-8.00600,0.01057,0.00573,0.00865,-0.05985,0.61313,-0.18803
-0.01840,0.00567,-0.00860,-0.47944,-5.64416,-8.00524,0.01584,0.00692,0.00472,-0.05982,0.61327,-0.18794
0.01323,-0.00464,-0.00837,-0.47935,-5.64597,-8.00397,0.02814,0.00305,0.00707,-0.05982,0.61350,-0.18786
0.00188,0.00880,0.00266,-0.47968,-5.64834,-8.00228,0.03013,-0.00211,0.00534,-0.05987,0.61379,-0.18777
0.03662,-0.00081,0.00584,-0.48030,-5.65056,-8.00068,0.02562,-0.00329,0.00866,-0.05996,0.61407,-0.18768
0.04827,-0.02647,0.02143,-0.48102,-5.65257,-7.99921,0.02643,0.00385,0.01215,-0.06006,0.61432,-0.18753
0.02023,-0.02946,0.01839,-0.48127,-5.65453,-7.99782,0.02160,0.00583,0.00995,-0.06010,0.61456,-0.18739
-0.01003,-0.06275,0.02908,-0.48168,-5.65610,-7.99668,0.01637,-0.00070,0.01253,-0.06016,0.61476,-0.18722
-0.00329,-0.06197,0.05658,-0.48273,-5.65733,-7.99575,0.01291,-0.00449,0.01386,-0.06030,0.61491,-0.18704
-0.04832,-0.05829,0.07300,-0.48409,-5.65832,-7.99497,0.01241,-0.00313,0.01573,-0.06047,0.61504,-0.18686
-0.03822,-0.03818,0.04130,-0.48491,-5.65927,-7.99424,0.01325,0.00647,0.01618,-0.06058,0.61515,-0.18665
-0.04458,-0.03598,0.02491,-0.48514,-5.66042,-7.99341,0.01746,0.00599,0.01131,-0.06062,0.61530,-0.18647
-0.04263,-0.04359,0.02706,-0.48544,-5.66180,-7.99242,0.01991,0.00113,0.01211,-0.06066,0.61547,-0.18632
-0.00173,-0.04096,0.04207,-0.48594,-5.66338,-7.99127,0.02010,0.00257,0.01354,-0.06073,0.61567,-0.18616
0.02256,-0.03639,0.07399,-0.48658,-5.66495,-7.99012,0.01944,0.00238,0.01902,-0.06082,0.61586,-0.18594
0.03805,-0.02893,0.10374,-0.48801,-5.66613,-7.98919,0.01063,0.00000,0.03099,-0.06101,0.61601,-0.18562
0.03998,-0.00141,0.12119,-0.49024,-5.66686,-7.98854,0.00840,-0.00694,0.03288,-0.06129,0.61610,-0.18520
-0.03556,0.02455,0.13829,-0.49266,-5.66723,-7.98812,0.00382,-0.00370,0.03272,-0.06160,0.61615,-0.18479
-0.07991,0.04368,0.13781,-0.49409,-5.66736,-7.98795,0.00009,0.00611,0.02666,-0.06178,0.61617,-0.18445
-0.11373,0.09808,0.13938,-0.49470,-5.66699,-7.98817,-0.00537,0.01093,0.01728,-0.06185,0.61612,-0.18416
-0.14101,0.09673,0.13636,-0.49465,-5.66639,-7.98860,-0.01126,0.01081,0.00977,-0.06184,0.61604,-0.18400
-0.09101,0.07822,0.13135,-0.49453,-5.66524,-7.98942,-0.01441,0.00537,0.00448,-0.06182,0.61590,-0.18391
-0.05441,0.06801,0.10412,-0.49416,-5.66400,-7.99032,-0.01750,0.00971,-0.00022,-0.06177,0.61575,-0.18389
-0.04805,0.05810,0.07269,-0.49319,-5.66263,-7.99136,-0.01833,0.01344,-0.00423,-0.06164,0.61557,-0.18392
-0.00981,0.04462,0.04423,-0.49148,-5.66112,-7.99253,-0.02031,0.01926,-0.00309,-0.06141,0.61539,-0.18400
0.05576,-0.00758,-0.00236,-0.48986,-5.65964,-7.99368,-0.01574,0.02450,0.00364,-0.06120,0.61520,-0.18400
0.07968,-0.02752,-0.06055,-0.48879,-5.65886,-7.99430,-0.00603,0.01519,0.01370,-0.06107,0.61510,-0.18390
0.05717,-0.02337,-0.07801,-0.48948,-5.65852,-7.99449,0.00152,-0.00400,0.02269,-0.06115,0.61506,-0.18370
0.02163,-0.03870,-0.03526,-0.49179,-5.65861,-7.99429,0.00203,-0.01374,0.02648,-0.06144,0.61507,-0.18338
-0.06209,-0.01825,-0.02753,-0.49396,-5.65870,-7.99409,0.00266,-0.00400,0.02306,-0.06171,0.61508,-0.18306
-0.10684,-0.00503,-0.00710,-0.49470,-5.65831,-7.99433,-0.00667,0.01409,0.01809,-0.06180,0.61503,-0.18282
-0.08956,-0.00709,-0.02064,-0.49373,-5.65744,-7.99500,-0.01330,0.03055,0.01709,-0.06168,0.61493,-0.18260
-0.07731,-0.01198,-0.05036,-0.49221,-5.65644,-7.99580,-0.00905,0.02719,0.01421,-0.06148,0.61480,-0.18242
-0.02503,-0.00375,-0.08717,-0.49166,-5.65585,-7.99625,-0.00265,0.00673,0.01473,-0.06141,0.61473,-0.18226
0.01776,-0.00133,-0.11275,-0.49271,-5.65617,-7.99596,0.01431,-0.00987,0.01908,-0.06154,0.61477,-0.18206
0.04632,0.00864,-0.13091,-0.49464,-5.65776,-7.99471,0.02986,-0.00950,0.02131,-0.06179,0.61497,-0.18181
0.04567,0.00542,-0.12672,-0.49653,-5.66098,-7.99232,0.04858,-0.00573,0.02362,-0.06205,0.61537,-0.18150
0.01440,0.01896,-0.10553,-0.49818,-5.66494,-7.98941,0.05378,-0.00672,0.01831,-0.06227,0.61586,-0.18122
0.00523,0.02305,-0.03210,-0.49933,-5.66932,-7.98623,0.05763,0.00100,0.01497,-0.06244,0.61641,-0.18098
0.03940,-0.00263,-0.00108,-0.49953,-5.67387,-7.98298,0.05807,0.01684,0.01664,-0.06249,0.61698,-0.18074
0.06185,-0.03559,0.02566,-0.49924,-5.67817,-7.97994,0.05195,0.01457,0.02464,-0.06248,0.61752,-0.18047
0.09565,-0.04914,0.08265,-0.50027,-5.68168,-7.97738,0.03913,-0.00147,0.03213,-0.06263,0.61796,-0.18008
0.04912,-0.05531,0.08610,-0.50326,-5.68434,-7.97530,0.03239,-0.02013,0.03975,-0.06302,0.61829,-0.17961
-0.05139,-0.03229,0.06964,-0.50735,-5.68671,-7.97335,0.02944,-0.02494,0.03834,-0.06355,0.61858,-0.17910
-0.13057,-0.01096,0.07914,-0.51107,-5.68858,-7.97178,0.02352,-0.01263,0.03376,-0.06402,0.61882,-0.17864
-0.13506,0.02454,0.09296,-0.51287,-5.68982,-7.97078,0.01292,0.01375,0.02896,-0.06426,0.61897,-0.17824
-0.13247,0.03861,0.06966,-0.51306,-5.69057,-7.97023,0.01054,0.01791,0.02577,-0.06428,0.61907,-0.17790
-0.06777,0.05602,0.04173,-0.51327,-5.69153,-7.96953,0.01800,0.01001,0.02625,-0.06432,0.61919,-0.17757
-0.04191,0.07315,0.00125,-0.51414,-5.69324,-7.96825,0.02732,0.00433,0.02789,-0.06443,0.61940,-0.17723
0.02128,0.05225,0.00913,-0.51569,-5.69568,-7.96641,0.03590,0.00017,0.03040,-0.06464,0.61971,-0.17685
0.02786,0.05519,0.01878,-0.51777,-5.69832,-7.96438,0.03599,-0.01129,0.03077,-0.06492,0.62004,-0.17645
-0.00908,0.03987,0.06587,-0.52093,-5.70081,-7.96240,0.02772,-0.02222,0.02633,-0.06533,0.62035,-0.17605
-0.05746,0.07349,0.09836,-0.52448,-5.70256,-7.96091,0.01733,-0.03170,0.01615,-0.06579,0.62057,-0.17575
-0.14668,0.07688,0.12872,-0.52744,-5.70356,-7.96000,0.00969,-0.02939,0.00058,-0.06616,0.62070,-0.17562
-0.21290,0.08155,0.11414,-0.52930,-5.70389,-7.95964,-0.00067,-0.02487,-0.01161,-0.06640,0.62074,-0.17567
-0.22294,0.07887,0.15547,-0.53034,-5.70375,-7.95967,-0.00486,-0.02666,-0.02328,-0.06653,0.62072,-0.17590
-0.20140,0.09213,0.15840,-0.53092,-5.70295,-7.96021,-0.01856,-0.02638,-0.03255,-0.06660,0.62062,-0.17625
-0.16244,0.08488,0.14528,-0.53113,-5.70078,-7.96174,-0.04071,-0.02504,-0.03312,-0.06661,0.62035,-0.17667
-0.12382,0.07136,0.11993,-0.53159,-5.69684,-7.96453,-0.05871,-0.03164,-0.03117,-0.06665,0.61985,-0.17711
-0.00925,0.07110,0.04078,-0.54156,-5.69149,-7.96769,-0.07545,-0.22620,0.32776,-0.06787,0.61918,-0.17644
5.75607,-1.23541,0.39002,-0.58265,-5.68368,-7.97036,-0.05621,-0.19340,0.25504,-0.07297,0.61821,-0.17224
-1.19626,-1.28335,0.34626,-0.59775,-5.67360,-7.97643,-0.18100,0.11772,0.26746,-0.07480,0.61694,-0.16935
0.66536,0.11768,1.68845,-0.60281,-5.65098,-7.99209,-0.34419,0.08344,0.21003,-0.07528,0.61412,-0.16653
-0.42055,-0.38266,1.42362,-0.60716,-5.61945,-8.01396,-0.40734,0.02966,0.11546,-0.07562,0.61019,-0.16493
-0.76420,-0.03265,0.45205,-0.61710,-5.58639,-8.03628,-0.39903,-0.18203,0.05378,-0.07664,0.60608,-0.16432
-0.51864,0.13401,0.23148,-0.64045,-5.55523,-8.05603,-0.36507,-0.30306,0.03925,-0.07933,0.60222,-0.16411
-0.19375,0.24130,-0.10002,-0.66472,-5.52785,-8.07288,-0.31255,-0.23537,0.03945,-0.08215,0.59884,-0.16399
-0.12341,0.11156,-0.43993,-0.68284,-5.50405,-8.08762,-0.27133,-0.14901,0.06060,-0.08423,0.59590,-0.16367
-0.09410,0.16002,-0.46522,-0.69599,-5.48278,-8.10093,-0.24311,-0.08167,0.08097,-0.08570,0.59329,-0.16307
-0.24246,0.26559,-0.44886,-0.70474,-5.46385,-8.11295,-0.21142,-0.02859,0.07040,-0.08665,0.59096,-0.16235
-0.61129,0.31068,-0.37985,-0.70912,-5.44699,-8.12390,-0.18961,0.00039,0.04545,-0.08707,0.58889,-0.16192
-0.82017,0.29438,-0.33330,-0.70763,-5.43309,-8.13334,-0.14734,0.06894,0.00990,-0.08679,0.58719,-0.16174
-0.88837,0.28627,-0.40486,-0.70078,-5.42258,-8.14094,-0.11182,0.07483,-0.02968,-0.08587,0.58590,-0.16203
-0.64428,0.28702,-0.33732,-0.69528,-5.41555,-8.14609,-0.06570,0.02706,-0.02211,-0.08514,0.58504,-0.16241
-0.28677,0.18961,-0.33771,-0.69276,-5.41197,-8.14869,-0.02792,0.00519,-0.03122,-0.08481,0.58460,-0.16275
-0.34164,0.21325,-0.29077,-0.68981,-5.41151,-8.14924,0.00373,0.01985,-0.04924,-0.08445,0.58455,-0.16324
-0.31304,0.18077,-0.13745,-0.68415,-5.41255,-8.14903,0.01080,0.04552,-0.05913,-0.08376,0.58467,-0.16387
-0.16476,0.08273,0.00066,-0.67665,-5.41417,-8.14858,0.01968,0.04801,-0.07102,-0.08285,0.58487,-0.16463
0.08107,-0.02419,0.03417,-0.66959,-5.41664,-8.14752,0.02979,0.02778,-0.06704,-0.08200,0.58517,-0.16545
0.36081,-0.09173,0.08547,-0.66487,-5.41973,-8.14585,0.03472,0.01140,-0.04903,-0.08144,0.58555,-0.16611
0.58251,-0.16663,0.06410,-0.66226,-5.42294,-8.14393,0.03834,0.01220,-0.01629,-0.08114,0.58594,-0.16647
0.65691,-0.20966,0.09872,-0.66170,-5.42629,-8.14174,0.04148,0.00257,0.01351,-0.08109,0.58635,-0.16643
0.51389,-0.19547,0.11018,-0.66323,-5.42956,-8.13943,0.03938,-0.01324,0.02471,-0.08130,0.58675,-0.16614
0.30697,-0.14830,0.10313,-0.66565,-5.43243,-8.13732,0.03527,-0.00650,0.02718,-0.08162,0.58711,-0.16578
0.09252,-0.08901,0.09858,-0.66668,-5.43486,-8.13561,0.02732,0.01353,0.01910,-0.08176,0.58740,-0.16546
-0.06353,-0.05639,0.08661,-0.66535,-5.43636,-8.13472,0.01269,0.04020,0.01173,-0.08161,0.58759,-0.16525
-0.09704,-0.03669,0.08549,-0.66177,-5.43691,-8.13465,-0.00007,0.05686,0.00403,-0.08117,0.58765,-0.16516
-0.08933,-0.02359,0.06828,-0.65691,-5.43638,-8.13539,-0.01222,0.06441,0.00171,-0.08057,0.58759,-0.16512
-0.12152,-0.00693,0.04404,-0.65151,-5.43524,-8.13659,-0.01541,0.06672,-0.00178,-0.07990,0.58745,-0.16513
-0.12705,0.01210,0.02273,-0.64583,-5.43422,-8.13773,-0.01085,0.06539,-0.00267,-0.07920,0.58732,-0.16519
-0.04094,0.03691,-0.01761,-0.64081,-5.43404,-8.13824,0.00707,0.05496,0.00360,-0.07858,0.58730,-0.16518
-0.04994,0.08848,-0.07692,-0.63749,-5.43563,-8.13744,0.03434,0.03193,0.00402,-0.07818,0.58750,-0.16512
-0.15399,0.15371,-0.10884,-0.63565,-5.43951,-8.13499,0.05879,0.01912,-0.00375,-0.07798,0.58797,-0.16505
-0.21908,0.17700,-0.15683,-0.63340,-5.44529,-8.13130,0.08226,0.03054,-0.00667,-0.07774,0.58868,-0.16505
-0.16240,0.15582,-0.14798,-0.62963,-5.45285,-8.12653,0.10047,0.05120,-0.00690,-0.07732,0.58961,-0.16505
-0.10614,0.11332,-0.18084,-0.62379,-5.46167,-8.12105,0.11578,0.07292,-0.01207,-0.07666,0.59069,-0.16508
-0.15716,0.06465,-0.17120,-0.61721,-5.47166,-8.11483,0.12918,0.06654,-0.02316,-0.07591,0.59192,-0.16518
-0.20119,0.06798,-0.14298,-0.61044,-5.48246,-8.10804,0.13390,0.06230,-0.03754,-0.07515,0.59325,-0.16542
-0.20699,0.04045,-0.10329,-0.60300,-5.49340,-8.10119,0.12885,0.06341,-0.05003,-0.07430,0.59459,-0.16583
-0.18308,-0.00075,-0.08025,-0.59444,-5.50382,-8.09475,0.11750,0.07539,-0.05669,-0.07330,0.59588,-0.16638
-0.07857,-0.00274,-0.08663,-0.58478,-5.51335,-8.08897,0.11317,0.08720,-0.05492,-0.07217,0.59705,-0.16696
0.00563,-0.02496,-0.11544,-0.57470,-5.52285,-8.08321,0.11782,0.08425,-0.05022,-0.07098,0.59822,-0.16750
0.03906,-0.00974,-0.17474,-0.56609,-5.53344,-8.07657,0.13735,0.05844,-0.04541,-0.06998,0.59953,-0.16798
0.02893,0.03543,-0.21019,-0.56119,-5.54569,-8.06851,0.16205,-0.00676,-0.04407,-0.06944,0.60104,-0.16840
0.04434,0.05014,-0.29965,-0.56089,-5.56024,-8.05850,0.19314,-0.03321,-0.03701,-0.06949,0.60284,-0.16873
0.08659,0.04883,-0.29667,-0.56049,-5.57675,-8.04712,0.21008,-0.00595,-0.03789,-0.06954,0.60489,-0.16901
0.02363,-0.00127,-0.21279,-0.55708,-5.59398,-8.03539,0.21638,0.04220,-0.03435,-0.06922,0.60703,-0.16924
-0.00529,-0.00437,-0.16214,-0.55061,-5.61168,-8.02348,0.22352,0.06701,-0.03585,-0.06852,0.60923,-0.16947
-0.03240,-0.03493,-0.12315,-0.54325,-5.63020,-8.01100,0.23172,0.05793,-0.03655,-0.06771,0.61153,-0.16974
-0.01706,-0.03347,-0.10840,-0.53689,-5.64917,-7.99806,0.23660,0.04560,-0.03913,-0.06703,0.61389,-0.17002
-0.01622,-0.02240,-0.05909,-0.53116,-5.66862,-7.98468,0.24502,0.04157,-0.04401,-0.06642,0.61632,-0.17033
-0.05559,0.01442,-0.04567,-0.52500,-5.68838,-7.97101,0.24632,0.04528,-0.05245,-0.06577,0.61879,-0.17072
-0.02081,0.02537,-0.00604,-0.51788,-5.70831,-7.95722,0.24642,0.05850,-0.04799,-0.06499,0.62129,-0.17116
0.05389,0.01805,0.02948,-0.51013,-5.72807,-7.94351,0.24557,0.07012,-0.04227,-0.06413,0.62377,-0.17153
0.09643,0.00706,0.02739,-0.50224,-5.74821,-7.92945,0.25542,0.07073,-0.03508,-0.06325,0.62630,-0.17182
0.11532,0.00828,0.06997,-0.49569,-5.76843,-7.91517,0.25185,0.04878,-0.02369,-0.06254,0.62885,-0.17198
0.08925,0.03131,0.15309,-0.49193,-5.78832,-7.90087,0.24354,0.02016,-0.01688,-0.06218,0.63136,-0.17202
-0.01350,0.03883,0.26731,-0.49048,-5.80692,-7.88730,0.22312,-0.00161,-0.01454,-0.06211,0.63371,-0.17203
-0.09895,0.06169,0.38323,-0.49002,-5.82304,-7.87544,0.18210,-0.01055,-0.01865,-0.06214,0.63575,-0.17208
-0.18034,0.05833,0.46718,-0.48914,-5.83584,-7.86601,0.14126,0.00311,-0.02567,-0.06210,0.63738,-0.17223
-0.21604,0.06210,0.46370,-0.48621,-5.84560,-7.85894,0.10390,0.02253,-0.03293,-0.06179,0.63862,-0.17251
-0.18215,0.04716,0.44955,-0.48194,-5.85250,-7.85406,0.07035,0.03141,-0.03630,-0.06128,0.63949,-0.17287
-0.12937,0.07232,0.42941,-0.47786,-5.85716,-7.85084,0.04468,0.01821,-0.03677,-0.06079,0.64009,-0.17327
-0.11334,0.08297,0.38453,-0.47458,-5.86003,-7.84890,0.02514,0.00613,-0.03985,-0.06039,0.64045,-0.17373
-0.08121,0.07894,0.37088,-0.47185,-5.86169,-7.84782,0.01439,0.00655,-0.04049,-0.06005,0.64066,-0.17421
-0.04473,0.08416,0.32629,-0.46853,-5.86256,-7.84737,0.00058,0.01351,-0.04550,-0.05963,0.64077,-0.17474
0.00344,0.09114,0.28961,-0.46432,-5.86251,-7.84766,-0.00662,0.02883,-0.04236,-0.05910,0.64077,-0.17529
0.07502,0.04925,0.21464,-0.45989,-5.86207,-7.84825,-0.00848,0.02486,-0.03832,-0.05853,0.64071,-0.17578
0.06272,0.01181,0.14282,-0.45612,-5.86175,-7.84871,-0.00012,0.01567,-0.03837,-0.05805,0.64067,-0.17627
0.06944,-0.00693,0.08253,-0.45252,-5.86201,-7.84872,0.00498,0.01684,-0.03876,-0.05759,0.64070,-0.17676
0.07955,-0.03078,0.05528,-0.44916,-5.86269,-7.84841,0.00559,0.01592,-0.03263,-0.05717,0.64079,-0.17721
0.09232,-0.06364,0.05341,-0.44636,-5.86321,-7.84818,0.00568,0.01212,-0.02579,-0.05681,0.64086,-0.17757
0.06201,-0.08850,0.06059,-0.44403,-5.86379,-7.84788,0.00517,0.00736,-0.02396,-0.05652,0.64093,-0.17788
0.00083,-0.09234,0.06088,-0.44226,-5.86413,-7.84772,-0.00191,0.00714,-0.02130,-0.05630,0.64097,-0.17815
0.00567,-0.10718,0.07655,-0.44052,-5.86352,-7.84828,-0.01585,0.00910,-0.01596,-0.05607,0.64089,-0.17839
0.00583,-0.11010,0.07799,-0.43858,-5.86194,-7.84957,-0.02950,0.01860,-0.01296,-0.05582,0.64069,-0.17859
0.02217,-0.11447,0.02450,-0.43606,-5.85921,-7.85174,-0.03973,0.02552,-0.00687,-0.05548,0.64035,-0.17876
0.04082,-0.11034,-0.01467,-0.43392,-5.85572,-7.85447,-0.04839,0.01739,-0.00182,-0.05519,0.63990,-0.17885
0.04732,-0.08186,-0.04250,-0.43278,-5.85217,-7.85717,-0.04024,0.00688,0.00139,-0.05503,0.63945,-0.17890
0.03808,-0.05423,-0.12054,-0.43268,-5.84928,-7.85933,-0.03396,-0.00004,0.00110,-0.05500,0.63908,-0.17889
0.05754,-0.03412,-0.18723,-0.43283,-5.84739,-7.86073,-0.01465,-0.00214,0.00464,-0.05501,0.63884,-0.17887
0.08074,-0.01171,-0.23097,-0.43344,-5.84720,-7.86084,0.00821,-0.00570,0.01025,-0.05508,0.63882,-0.17880
0.06005,0.02607,-0.24016,-0.43519,-5.84877,-7.85957,0.03227,-0.02094,0.01030,-0.05531,0.63902,-0.17864
0.01011,0.03898,-0.18225,-0.43763,-5.85180,-7.85718,0.04624,-0.03285,0.00301,-0.05564,0.63940,-0.17854
-0.08892,0.06368,-0.09482,-0.44035,-5.85556,-7.85423,0.04891,-0.03543,-0.00641,-0.05601,0.63988,-0.17852
-0.16224,0.06346,-0.03450,-0.44200,-5.85922,-7.85140,0.04198,-0.02267,-0.01490,-0.05624,0.64035,-0.17862
-0.15110,0.07019,0.02050,-0.44221,-5.86251,-7.84894,0.03753,-0.01009,-0.02093,-0.05628,0.64077,-0.17883
-0.12815,0.09275,0.07156,-0.44152,-5.86532,-7.84687,0.03331,-0.00711,-0.02535,-0.05621,0.64112,-0.17909
-0.14269,0.09613,0.07758,-0.44045,-5.86795,-7.84497,0.02888,-0.00814,-0.03045,-0.05608,0.64146,-0.17943
-0.15080,0.11060,0.06676,-0.43922,-5.87030,-7.84328,0.02776,-0.00869,-0.03264,-0.05594,0.64176,-0.17981
-0.13812,0.11408,0.07872,-0.43769,-5.87243,-7.84177,0.02452,-0.00421,-0.03371,-0.05576,0.64203,-0.18021
-0.13601,0.11350,0.08733,-0.43590,-5.87425,-7.84051,0.02033,-0.00696,-0.03636,-0.05554,0.64226,-0.18064
-0.17698,0.11761,0.09172,-0.43429,-5.87611,-7.83920,0.02161,-0.01306,-0.04525,-0.05534,0.64250,-0.18113
-0.21771,0.13549,0.11023,-0.43262,-5.87768,-7.83812,0.01376,-0.01779,-0.05646,-0.05514,0.64270,-0.18175
2.15048,-0.11398,0.19331,-0.44177,-5.87437,-7.84009,-0.08370,0.05305,0.41772,-0.05629,0.64228,-0.17845
2.99777,-1.91625,0.83071,-0.46052,-5.86820,-7.84363,-0.05105,-0.11754,0.10347,-0.05864,0.64149,-0.17572
-1.75323,0.16974,0.47348,-0.47981,-5.86091,-7.84792,-0.12603,-0.14953,0.17872,-0.06106,0.64056,-0.17365
0.08482,0.34254,1.04039,-0.50141,-5.84876,-7.85564,-0.16154,-0.22699,0.01303,-0.06374,0.63902,-0.17264
-1.31389,-0.02662,-0.12463,-0.51229,-5.83828,-7.86273,-0.09538,-0.06899,-0.02925,-0.06506,0.63769,-0.17287
-0.36571,0.17699,-0.74530,-0.51371,-5.83449,-7.86545,-0.00547,-0.01591,-0.02778,-0.06522,0.63721,-0.17330
-0.04541,0.17219,-0.74392,-0.51095,-5.83791,-7.86308,0.08982,0.05487,-0.01624,-0.06489,0.63764,-0.17351
-0.00214,0.12724,-0.84713,-0.50558,-5.84759,-7.85624,0.14692,0.05320,0.00070,-0.06426,0.63887,-0.17354
-0.11301,0.12469,-0.47583,-0.50334,-5.85895,-7.84791,0.14233,0.02022,0.01199,-0.06405,0.64031,-0.17332
-0.29701,0.25847,-0.05477,-0.50220,-5.86868,-7.84071,0.10629,0.02606,0.00256,-0.06396,0.64155,-0.17313
-0.51438,0.23490,0.16935,-0.49852,-5.87504,-7.83619,0.05560,0.06237,-0.01292,-0.06353,0.64236,-0.17313
-0.59965,0.17728,0.29457,-0.49151,-5.87727,-7.83495,0.00090,0.08361,-0.03176,-0.06265,0.64265,-0.17338
-0.51675,0.15393,0.35459,-0.48283,-5.87577,-7.83662,-0.04208,0.07338,-0.04556,-0.06153,0.64245,-0.17388
-0.39010,0.11742,0.32059,-0.47525,-5.87204,-7.83988,-0.05722,0.04313,-0.05454,-0.06055,0.64198,-0.17454
-0.28387,0.09691,0.20729,-0.46956,-5.86813,-7.84315,-0.04690,0.01786,-0.06371,-0.05980,0.64148,-0.17531
-0.15938,0.11272,0.09415,-0.46476,-5.86554,-7.84537,-0.02531,0.00928,-0.06905,-0.05917,0.64115,-0.17616
-0.03861,0.12239,-0.00084,-0.46028,-5.86504,-7.84601,0.00618,-0.00231,-0.07336,-0.05860,0.64109,-0.17706
0.07107,0.06413,-0.03870,-0.45669,-5.86692,-7.84481,0.03324,-0.01190,-0.06859,-0.05815,0.64133,-0.17794
0.20794,-0.02265,-0.02709,-0.45380,-5.87083,-7.84205,0.05526,-0.01026,-0.05928,-0.05780,0.64182,-0.17870
0.37067,-0.09325,0.05911,-0.45222,-5.87534,-7.83877,0.05218,-0.02045,-0.03893,-0.05763,0.64240,-0.17926
0.46979,-0.13349,0.12717,-0.45229,-5.87895,-7.83605,0.03689,-0.01998,-0.01167,-0.05765,0.64286,-0.17955
0.50250,-0.19286,0.15314,-0.45372,-5.88093,-7.83449,0.01211,-0.01498,0.01276,-0.05785,0.64311,-0.17953
0.39752,-0.21396,0.14583,-0.45587,-5.88093,-7.83436,-0.01129,-0.01309,0.02156,-0.05812,0.64311,-0.17930
0.23202,-0.19506,0.12395,-0.45842,-5.87918,-7.83553,-0.03179,-0.01583,0.01860,-0.05844,0.64289,-0.17906
0.07559,-0.19641,0.06532,-0.46061,-5.87618,-7.83765,-0.04041,-0.00935,0.01561,-0.05870,0.64251,-0.17887
-0.02826,-0.18537,-0.03806,-0.46121,-5.87331,-7.83977,-0.03073,0.01381,0.00631,-0.05876,0.64214,-0.17875
-0.11015,-0.14427,-0.10497,-0.45907,-5.87132,-7.84138,-0.02127,0.04395,-0.00272,-0.05848,0.64189,-0.17875
-0.12597,-0.08351,-0.10060,-0.45462,-5.86982,-7.84276,-0.01769,0.05550,-0.00946,-0.05790,0.64170,-0.17884
-0.12128,-0.04334,-0.08980,-0.45004,-5.86854,-7.84398,-0.01719,0.04498,-0.01251,-0.05731,0.64153,-0.17898
-0.13076,0.02606,-0.04130,-0.44609,-5.86701,-7.84535,-0.01921,0.03536,-0.01307,-0.05680,0.64134,-0.17917
-0.01958,0.00902,-0.00773,-0.44355,-5.86494,-7.84705,-0.03406,0.03118,0.01646,-0.05646,0.64108,-0.17916
0.24620,-0.13156,0.02287,-0.44312,-5.86187,-7.84936,-0.04108,0.01268,0.02519,-0.05639,0.64068,-0.17892
0.12858,-0.08158,0.03090,-0.44447,-5.85843,-7.85185,-0.03802,-0.00328,0.03261,-0.05655,0.64025,-0.17860
0.05253,-0.08162,0.01127,-0.44713,-5.85525,-7.85407,-0.03907,-0.00999,0.03510,-0.05687,0.63984,-0.17819
0.00672,-0.03926,0.00700,-0.44995,-5.85212,-7.85624,-0.03706,-0.01312,0.03120,-0.05721,0.63945,-0.17780
0.00023,-0.02781,0.02217,-0.45229,-5.84906,-7.85839,-0.03283,0.00565,0.03743,-0.05749,0.63906,-0.17741
-0.01260,-0.02739,0.03846,-0.45337,-5.84619,-7.86047,-0.03562,0.01982,0.03767,-0.05761,0.63869,-0.17697
-0.05108,-0.01342,0.05745,-0.45380,-5.84295,-7.86285,-0.04475,0.01843,0.03515,-0.05765,0.63828,-0.17654
-0.06173,0.03454,0.12664,-0.45526,-5.83914,-7.86560,-0.04918,-0.00517,0.03383,-0.05782,0.63780,-0.17614
-0.05490,0.06302,0.11375,-0.45836,-5.83529,-7.86827,-0.04471,-0.02244,0.02922,-0.05819,0.63731,-0.17578
-0.06151,0.09286,0.13145,-0.46147,-5.83176,-7.87070,-0.04111,-0.01370,0.02285,-0.05856,0.63686,-0.17547
-0.09166,0.09868,0.11151,-0.46305,-5.82845,-7.87306,-0.04062,0.00264,0.01520,-0.05875,0.63644,-0.17526
-0.08460,0.08417,0.10862,-0.46323,-5.82547,-7.87526,-0.03582,0.01409,0.01164,-0.05875,0.63606,-0.17512
-0.06222,0.10657,0.10172,-0.46226,-5.82273,-7.87734,-0.03357,0.01930,0.00449,-0.05862,0.63572,-0.17505
-0.02336,0.06048,0.10587,-0.46071,-5.82048,-7.87910,-0.02455,0.02710,0.00803,-0.05841,0.63543,-0.17500
0.04930,0.03048,0.06618,-0.45931,-5.81861,-7.88056,-0.02035,0.02321,0.01416,-0.05822,0.63519,-0.17487
0.07184,0.02473,0.03928,-0.45925,-5.81736,-7.88149,-0.01024,-0.00057,0.01819,-0.05820,0.63503,-0.17468
0.07894,0.02051,0.03718,-0.46156,-5.81658,-7.88193,-0.00811,-0.02439,0.01940,-0.05849,0.63494,-0.17443
0.02203,-0.01841,0.02965,-0.46496,-5.81596,-7.88218,-0.01068,-0.03153,0.01554,-0.05892,0.63486,-0.17422
-0.05109,-0.04670,0.06610,-0.46770,-5.81461,-7.88302,-0.02345,-0.01518,0.01189,-0.05926,0.63469,-0.17407
-0.04036,-0.03663,0.12420,-0.46900,-5.81181,-7.88500,-0.04523,0.00365,0.01066,-0.05941,0.63433,-0.17394
-0.00254,-0.07520,0.10414,-0.46912,-5.80735,-7.88828,-0.06411,0.01382,0.01672,-0.05940,0.63377,-0.17381
0.05995,-0.09434,0.06163,-0.46966,-5.80183,-7.89231,-0.07105,-0.00129,0.02634,-0.05944,0.63307,-0.17360
0.10341,-0.09545,0.06200,-0.47271,-5.79578,-7.89657,-0.08057,-0.03525,0.03678,-0.05979,0.63230,-0.17328
0.09961,-0.08326,0.10125,-0.47894,-5.78867,-7.90141,-0.09769,-0.06215,0.04136,-0.06054,0.63141,-0.17287
0.07606,-0.09703,0.15708,-0.48651,-5.77984,-7.90741,-0.12018,-0.06740,0.04208,-0.06145,0.63029,-0.17243
0.02893,-0.10524,0.16442,-0.49415,-5.76893,-7.91490,-0.14881,-0.06124,0.04393,-0.06235,0.62891,-0.17199
0.03174,-0.07496,0.17366,-0.50130,-5.75582,-7.92399,-0.17492,-0.06001,0.04259,-0.06318,0.62726,-0.17159
0.04989,-0.06698,0.15142,-0.50868,-5.74106,-7.93422,-0.19066,-0.06366,0.04498,-0.06402,0.62540,-0.17119
0.06891,-0.07258,0.10965,-0.51692,-5.72543,-7.94498,-0.19749,-0.07651,0.04662,-0.06497,0.62344,-0.17077
0.13521,-0.05461,0.08988,-0.52666,-5.70958,-7.95573,-0.19728,-0.09308,0.05564,-0.06610,0.62145,-0.17029
0.18432,-0.03963,0.08693,-0.53761,-5.69388,-7.96625,-0.19249,-0.09439,0.06642,-0.06738,0.61948,-0.16970
0.16832,-0.03063,0.10959,-0.54990,-5.67835,-7.97649,-0.18944,-0.10923,0.07241,-0.06883,0.61754,-0.16898
0.08812,-0.00624,0.12961,-0.56158,-5.66293,-7.98663,-0.18834,-0.08364,0.07476,-0.07020,0.61561,-0.16823
0.01298,-0.04584,0.05599,-0.57262,-5.64787,-7.99650,-0.18227,-0.08409,0.07630,-0.07149,0.61373,-0.16748
0.00296,-0.03581,0.09305,-0.58310,-5.63306,-8.00619,-0.17642,-0.06422,0.07932,-0.07270,0.61189,-0.16667
-0.01973,-0.04334,0.03252,-0.59139,-5.61910,-8.01539,-0.16325,-0.03207,0.07508,-0.07365,0.61015,-0.16586
-0.12624,-0.09690,-0.02036,-0.59726,-5.60594,-8.02416,-0.15289,-0.01678,0.07053,-0.07430,0.60851,-0.16512
-0.10338,-0.06227,0.00216,-0.60276,-5.59344,-8.03247,-0.15030,-0.02315,0.07081,-0.07490,0.60696,-0.16441
-0.10078,-0.01583,-0.00395,-0.60865,-5.58136,-8.04042,-0.14115,-0.02719,0.06080,-0.07555,0.60546,-0.16374
-0.16985,0.00282,-0.04626,-0.61395,-5.56994,-8.04793,-0.13337,-0.02612,0.04821,-0.07614,0.60404,-0.16322
-0.10822,0.03302,-0.09620,-0.61827,-5.55944,-8.05486,-0.11821,-0.01389,0.04741,-0.07661,0.60274,-0.16276
0.01885,0.03690,-0.14544,-0.62174,-5.55059,-8.06069,-0.09465,-0.00281,0.05310,-0.07698,0.60165,-0.16226
0.06420,0.06002,-0.20039,-0.62534,-5.54394,-8.06499,-0.06045,-0.01257,0.05975,-0.07738,0.60083,-0.16165
0.01106,0.09562,-0.20173,-0.63026,-5.53989,-8.06739,-0.02881,-0.02842,0.05938,-0.07797,0.60033,-0.16099
-0.04239,0.12760,-0.19360,-0.63621,-5.53805,-8.06819,-0.00920,-0.03821,0.05618,-0.07869,0.60010,-0.16030
-0.15238,0.13697,-0.17020,-0.64234,-5.53769,-8.06794,0.00688,-0.03762,0.05102,-0.07945,0.60005,-0.15965
-0.16677,0.17293,-0.10861,-0.64696,-5.53834,-8.06714,0.01865,-0.01008,0.03911,-0.08003,0.60013,-0.15906
-0.23122,0.15766,-0.14308,-0.64850,-5.53998,-8.06589,0.02923,0.01381,0.02661,-0.08023,0.60034,-0.15864
-0.29212,0.11624,-0.16377,-0.64865,-5.54240,-8.06421,0.03515,0.00486,0.01118,-0.08026,0.60064,-0.15837
-0.25312,0.16421,-0.10349,-0.64934,-5.54518,-8.06224,0.03459,-0.01312,0.00117,-0.08037,0.60098,-0.15826
-0.21618,0.16424,-0.06919,-0.65052,-5.54805,-8.06017,0.03517,-0.01768,-0.00574,-0.08053,0.60133,-0.15824
-0.18413,0.14064,-0.06182,-0.65130,-5.55094,-8.05812,0.03483,-0.01087,-0.00843,-0.08065,0.60169,-0.15830
-0.17102,0.16190,-0.03544,-0.65109,-5.55395,-8.05606,0.03630,-0.00308,-0.01362,-0.08064,0.60206,-0.15842
-0.14698,0.16600,-0.07142,-0.65059,-5.55714,-8.05390,0.04051,-0.00584,-0.01624,-0.08060,0.60246,-0.15856
-0.15380,0.14891,-0.09626,-0.65095,-5.56101,-8.05120,0.05240,-0.02381,-0.02360,-0.08068,0.60294,-0.15873
-0.19089,0.19783,-0.08608,-0.65187,-5.56608,-8.04762,0.06719,-0.03226,-0.03337,-0.08083,0.60357,-0.15899
-0.21335,0.19707,-0.09503,-0.65215,-5.57206,-8.04346,0.07324,-0.02626,-0.04190,-0.08090,0.60431,-0.15936
-0.21551,0.17469,-0.08025,-0.65119,-5.57870,-8.03893,0.08281,-0.01693,-0.05358,-0.08083,0.60513,-0.15988
-0.19450,0.19551,-0.05185,-0.64886,-5.58591,-8.03411,0.08828,-0.00774,-0.06363,-0.08059,0.60602,-0.16052
-0.17829,0.19391,-0.03103,-0.64531,-5.59403,-8.02875,0.10106,0.00057,-0.07111,-0.08020,0.60703,-0.16125
-0.19401,0.20085,-0.03545,-0.64052,-5.60306,-8.02283,0.11341,0.01596,-0.07926,-0.07967,0.60815,-0.16206
-0.23551,0.23052,-0.05002,-0.63403,-5.61328,-8.01620,0.13108,0.02861,-0.09360,-0.07893,0.60942,-0.16298
-0.28608,0.26550,-0.09257,-0.62536,-5.62522,-8.00851,0.15451,0.04696,-0.11016,-0.07793,0.61091,-0.16410
-0.30542,0.29033,-0.11931,-0.61410,-5.63958,-7.99928,0.18509,0.07057,-0.12574,-0.07662,0.61270,-0.16538
-0.28828,0.30914,-0.16112,-0.59997,-5.65644,-7.98844,0.21830,0.08350,-0.14759,-0.07496,0.61480,-0.16687
2.53835,-0.05513,-0.12240,-0.60354,-5.67255,-7.97674,0.20763,-0.05126,0.28592,-0.07552,0.61681,-0.16480
2.30705,-1.52948,0.17408,-0.61420,-5.69128,-7.96256,0.25882,0.06236,0.06554,-0.07698,0.61916,-0.16291
-0.86072,0.03457,0.31685,-0.61261,-5.70688,-7.95151,0.14188,0.04646,0.09745,-0.07689,0.62111,-0.16151
0.19746,-0.04232,1.33889,-0.62018,-5.71334,-7.94629,0.03720,-0.14397,-0.00634,-0.07789,0.62192,-0.16093
-0.72384,-0.24123,0.74018,-0.62903,-5.71509,-7.94433,0.01296,-0.11406,-0.04725,-0.07902,0.62214,-0.16120
-0.57384,-0.18541,0.08668,-0.63463,-5.71660,-7.94280,0.01661,-0.11649,-0.07786,-0.07973,0.62233,-0.16203
-0.13044,-0.20822,-0.19025,-0.63795,-5.71908,-7.94075,0.04166,-0.04810,-0.03593,-0.08017,0.62264,-0.16271
0.26588,-0.24455,-0.45956,-0.63862,-5.72330,-7.93766,0.05762,0.00206,-0.00359,-0.08028,0.62317,-0.16288
-0.00575,-0.22512,-0.37963,-0.63739,-5.72776,-7.93454,0.05349,0.03942,0.01226,-0.08016,0.62373,-0.16275
-0.23585,-0.03646,-0.06430,-0.63414,-5.73118,-7.93233,0.03498,0.06682,0.02316,-0.07977,0.62416,-0.16248
-0.34913,0.02049,0.15897,-0.62995,-5.73246,-7.93174,-0.00275,0.06849,0.01821,-0.07925,0.62432,-0.16219
-0.46996,0.06991,0.33618,-0.62569,-5.73100,-7.93313,-0.03269,0.05381,-0.00101,-0.07871,0.62414,-0.16209
-0.43987,0.15730,0.38459,-0.62151,-5.72741,-7.93605,-0.05522,0.04046,-0.01224,-0.07816,0.62369,-0.16222
-0.38001,0.15223,0.36501,-0.61732,-5.72264,-7.93982,-0.06712,0.03491,-0.02859,-0.07759,0.62309,-0.16255
-0.23938,0.14651,0.26318,-0.61295,-5.71782,-7.94363,-0.05750,0.03032,-0.03250,-0.07701,0.62248,-0.16299
-0.05998,0.14497,0.15961,-0.60935,-5.71448,-7.94631,-0.03331,0.01342,-0.03372,-0.07653,0.62207,-0.16344
0.01746,0.11246,0.06774,-0.60778,-5.71339,-7.94721,0.00149,-0.01962,-0.02936,-0.07633,0.62193,-0.16384
0.12930,0.10219,0.02231,-0.60889,-5.71464,-7.94622,0.02782,-0.04143,-0.01948,-0.07648,0.62209,-0.16413
0.24637,0.08552,0.02049,-0.61209,-5.71788,-7.94365,0.04914,-0.05790,-0.01304,-0.07690,0.62249,-0.16427
0.17268,0.03508,0.04187,-0.61605,-5.72206,-7.94034,0.05510,-0.05750,-0.01271,-0.07743,0.62302,-0.16439
0.13193,0.01073,0.06120,-0.61975,-5.72659,-7.93678,0.05356,-0.05172,-0.01577,-0.07793,0.62359,-0.16451
0.11378,0.00343,0.10742,-0.62210,-5.73051,-7.93377,0.04231,-0.03418,-0.01926,-0.07825,0.62408,-0.16469
0.15217,-0.03768,0.12803,-0.62323,-5.73355,-7.93148,0.03004,-0.01695,-0.01325,-0.07842,0.62446,-0.16485
0.16200,-0.05735,0.14886,-0.62363,-5.73512,-7.93031,0.00966,-0.00823,-0.00868,-0.07848,0.62466,-0.16495
0.11048,-0.07246,0.15318,-0.62388,-5.73512,-7.93029,-0.01194,-0.00508,-0.00370,-0.07851,0.62466,-0.16503
0.04505,-0.09514,0.13626,-0.62430,-5.73385,-7.93118,-0.02183,-0.01063,-0.00148,-0.07855,0.62450,-0.16508
-0.04069,-0.09930,0.08724,-0.62535,-5.73178,-7.93259,-0.03076,-0.02099,-0.00587,-0.07867,0.62424,-0.16514
-0.06562,-0.06078,0.01337,-0.62660,-5.72930,-7.93428,-0.03386,-0.02079,-0.00639,-0.07881,0.62393,-0.16525
-0.09424,-0.06084,-0.07515,-0.62791,-5.72699,-7.93585,-0.02697,-0.02121,-0.01066,-0.07896,0.62364,-0.16538
-0.15549,-0.03719,-0.13579,-0.62816,-5.72536,-7.93701,-0.01733,-0.00401,-0.01427,-0.07898,0.62343,-0.16555
-0.15637,-0.01195,-0.15762,-0.62578,-5.72456,-7.93777,-0.00851,0.03112,-0.02265,-0.07867,0.62333,-0.16581
-0.07552,0.02637,-0.12856,-0.62179,-5.72412,-7.93840,-0.00955,0.03193,-0.02790,-0.07817,0.62328,-0.16613
-0.09057,0.04668,-0.10799,-0.61827,-5.72379,-7.93892,-0.00513,0.01953,-0.02691,-0.07772,0.62323,-0.16646
-0.10224,0.05422,-0.08672,-0.61558,-5.72384,-7.93909,0.00124,0.01204,-0.02336,-0.07738,0.62324,-0.16678
-0.09508,0.06312,-0.06993,-0.61360,-5.72421,-7.93898,0.00430,0.00033,-0.02379,-0.07714,0.62329,-0.16707
-0.10472,0.05462,0.00492,-0.61264,-5.72469,-7.93871,0.00582,-0.00735,-0.02026,-0.07702,0.62335,-0.16733
-0.08773,0.05098,0.04468,-0.61243,-5.72539,-7.93822,0.00914,-0.01326,-0.01885,-0.07700,0.62343,-0.16755
-0.09727,0.00199,0.05044,-0.61276,-5.72608,-7.93769,0.00572,-0.02251,-0.02368,-0.07704,0.62352,-0.16779
-0.14516,-0.00514,0.07211,-0.61290,-5.72673,-7.93721,0.00688,-0.01895,-0.03098,-0.07707,0.62360,-0.16813
-0.08545,-0.00515,0.07940,-0.61231,-5.72747,-7.93672,0.00528,-0.01193,-0.03806,-0.07700,0.62370,-0.16854
-0.03037,-0.01635,0.10429,-0.61037,-5.72824,-7.93632,0.00901,0.00013,-0.04127,-0.07676,0.62379,-0.16903
0.03152,0.00382,0.09394,-0.60777,-5.72896,-7.93600,0.00458,0.00258,-0.04276,-0.07644,0.62388,-0.16954
0.07951,0.01303,0.10930,-0.60549,-5.72948,-7.93579,0.00306,-0.00031,-0.03406,-0.07615,0.62395,-0.17001
0.07854,0.04504,0.13110,-0.60332,-5.72977,-7.93575,0.00102,0.00497,-0.03290,-0.07588,0.62399,-0.17041
0.05084,0.08033,0.15473,-0.60091,-5.73005,-7.93573,0.00178,0.01058,-0.02993,-0.07558,0.62402,-0.17079
0.03009,0.05491,0.20681,-0.59811,-5.72991,-7.93604,-0.01029,0.02135,-0.02761,-0.07522,0.62400,-0.17112
0.04194,0.00992,0.25737,-0.59485,-5.72862,-7.93722,-0.02754,0.01937,-0.03136,-0.07480,0.62384,-0.17148
-0.00899,0.01101,0.26388,-0.59196,-5.72612,-7.93924,-0.04083,0.00750,-0.03371,-0.07442,0.62353,-0.17192
0.03072,-0.01526,0.20279,-0.58961,-5.72289,-7.94174,-0.04712,0.01079,-0.02856,-0.07411,0.62312,-0.17233
0.04216,-0.07554,0.12579,-0.58699,-5.71932,-7.94451,-0.04813,0.01681,-0.02532,-0.07375,0.62267,-0.17271
0.02667,-0.08068,0.06613,-0.58392,-5.71583,-7.94725,-0.04552,0.02176,-0.02271,-0.07334,0.62223,-0.17306
0.08454,-0.08905,-0.00255,-0.58074,-5.71240,-7.94994,-0.04780,0.03069,-0.01378,-0.07292,0.62180,-0.17333
0.08013,-0.10528,-0.06346,-0.57797,-5.70874,-7.95277,-0.04721,0.02278,-0.00310,-0.07255,0.62135,-0.17348
0.07756,-0.12404,-0.09971,-0.57630,-5.70479,-7.95573,-0.05077,0.01547,0.00329,-0.07231,0.62085,-0.17353
0.06231,-0.11329,-0.11918,-0.57601,-5.70088,-7.95855,-0.04787,0.00351,0.01078,-0.07225,0.62036,-0.17348
-0.03063,-0.10259,-0.15452,-0.57645,-5.69752,-7.96093,-0.03583,0.00147,0.00634,-0.07228,0.61994,-0.17339
-0.08086,-0.08440,-0.19697,-0.57650,-5.69536,-7.96247,-0.01956,0.00336,0.00348,-0.07228,0.61967,-0.17337
-0.09953,-0.07811,-0.24391,-0.57594,-5.69431,-7.96326,-0.00336,0.01204,-0.00422,-0.07220,0.61954,-0.17337
-0.07868,-0.05566,-0.25744,-0.57493,-5.69492,-7.96290,0.01698,0.00365,-0.00822,-0.07208,0.61961,-0.17345
-0.00268,-0.04175,-0.25416,-0.57432,-5.69730,-7.96124,0.04083,0.00173,-0.00619,-0.07201,0.61991,-0.17352
0.09599,-0.03277,-0.23709,-0.57394,-5.70149,-7.95826,0.06391,0.00697,0.00813,-0.07199,0.62044,-0.17348
0.16340,-0.03817,-0.17511,-0.57460,-5.70702,-7.95426,0.07655,-0.00531,0.02026,-0.07211,0.62113,-0.17325
0.18160,-0.01917,-0.05447,-0.57754,-5.71314,-7.94964,0.08146,-0.03263,0.03075,-0.07252,0.62190,-0.17287
0.09761,0.05358,0.08622,-0.58288,-5.71901,-7.94503,0.07430,-0.05302,0.03042,-0.07323,0.62263,-0.17241
-0.02078,0.09753,0.18036,-0.58869,-5.72420,-7.94087,0.06003,-0.05086,0.02561,-0.07400,0.62329,-0.17201
-0.10192,0.12539,0.24655,-0.59284,-5.72827,-7.93762,0.04548,-0.02744,0.00964,-0.07455,0.62380,-0.17175
-0.15907,0.13006,0.28459,-0.59375,-5.73144,-7.93526,0.03444,0.00185,-0.00809,-0.07469,0.62420,-0.17171
-0.15042,0.13733,0.28456,-0.59223,-5.73392,-7.93358,0.02564,0.01835,-0.01885,-0.07451,0.62451,-0.17184
-0.05187,0.13084,0.30313,-0.58918,-5.73566,-7.93255,0.01737,0.03059,-0.01694,-0.07414,0.62473,-0.17206
0.04019,0.10798,0.28791,-0.58607,-5.73675,-7.93200,0.00668,0.02328,-0.01292,-0.07375,0.62486,-0.17224
0.07771,0.07846,0.27171,-0.58408,-5.73701,-7.93196,-0.00186,0.01103,-0.00518,-0.07350,0.62489,-0.17236
0.04788,0.05332,0.29325,-0.58343,-5.73626,-7.93255,-0.01838,0.00419,0.00239,-0.07342,0.62480,-0.17239
-0.01458,0.04847,0.30267,-0.58322,-5.73381,-7.93434,-0.04207,0.00529,-0.00105,-0.07337,0.62449,-0.17241
-0.11719,0.02651,0.27394,-0.58221,-5.72935,-7.93763,-0.07156,0.02060,-0.00126,-0.07322,0.62393,-0.17246
-0.10365,-0.00140,0.20923,-0.57975,-5.72284,-7.94251,-0.09201,0.04099,0.00106,-0.07286,0.62311,-0.17253
-0.06865,-0.03947,0.04825,-0.57644,-5.71545,-7.94807,-0.08962,0.04110,0.00462,-0.07240,0.62219,-0.17259
-0.10672,-0.06028,-0.09396,-0.57383,-5.70870,-7.95310,-0.07886,0.02530,-0.00243,-0.07203,0.62134,-0.17267
-0.06608,-0.06260,-0.19009,-0.57257,-5.70308,-7.95722,-0.06131,0.00935,-0.00086,-0.07183,0.62064,-0.17275
0.01447,-0.06224,-0.28036,-0.57247,-5.69896,-7.96019,-0.04114,0.00004,0.00815,-0.07179,0.62012,-0.17275
0.02895,-0.03848,-0.31012,-0.57348,-5.69653,-7.96185,-0.01908,-0.01318,0.01106,-0.07190,0.61981,-0.17266
0.02298,-0.00197,-0.29234,-0.57574,-5.69593,-7.96212,0.00507,-0.02022,0.01426,-0.07218,0.61974,-0.17250
-0.02396,0.04832,-0.25303,-0.57818,-5.69700,-7.96118,0.02314,-0.02106,0.00752,-0.07250,0.61987,-0.17234
-0.09857,0.09631,-0.20497,-0.58003,-5.69950,-7.95925,0.04023,-0.02114,-0.00599,-0.07275,0.62019,-0.17230
-0.17108,0.16126,-0.10549,-0.58100,-5.70339,-7.95639,0.05384,-0.02074,-0.02424,-0.07289,0.62067,-0.17243
-0.19960,0.19854,-0.02604,-0.58016,-5.70850,-7.95279,0.06821,-0.00308,-0.04391,-0.07282,0.62132,-0.17280
-0.15602,0.18341,0.03348,-0.57675,-5.71432,-7.94886,0.06895,0.01532,-0.05436,-0.07243,0.62204,-0.17334
-0.08209,0.15878,0.09637,-0.57212,-5.71992,-7.94516,0.06172,0.01704,-0.05703,-0.07188,0.62275,-0.17396
0.01250,0.13897,0.16170,-0.56840,-5.72494,-7.94181,0.05331,-0.00414,-0.05277,-0.07145,0.62338,-0.17459
0.03411,0.12662,0.19594,-0.56711,-5.72906,-7.93893,0.04198,-0.03147,-0.04754,-0.07131,0.62390,-0.17515
-0.02576,0.09093,0.19530,-0.56756,-5.73197,-7.93680,0.02296,-0.04188,-0.04716,-0.07139,0.62426,-0.17568
-0.12756,0.06395,0.21293,-0.56736,-5.73327,-7.93587,0.00373,-0.02239,-0.05136,-0.07137,0.62443,-0.17627
-0.25197,0.04954,0.17464,-0.56491,-5.73307,-7.93619,-0.01622,0.00007,-0.06551,-0.07106,0.62440,-0.17698
-0.33779,0.06685,0.11620,-0.55974,-5.73183,-7.93746,-0.02632,0.02065,-0.08134,-0.07040,0.62424,-0.17792
-0.35559,0.07829,0.00639,-0.55256,-5.72980,-7.93942,-0.03752,0.02651,-0.09914,-0.06948,0.62399,-0.17906
-0.36411,0.04888,-0.06676,-0.54449,-5.72763,-7.94155,-0.03265,0.02118,-0.11716,-0.06846,0.62372,-0.18042
-0.33974,0.02135,-0.14602,-0.53549,-5.72614,-7.94323,-0.01934,0.02768,-0.12945,-0.06731,0.62353,-0.18196
2.57658,-0.36594,-0.16675,-0.54855,-5.72251,-7.94496,-0.05546,-0.12996,0.36508,-0.06893,0.62307,-0.17940
2.97116,-2.06378,0.22849,-0.56648,-5.71842,-7.94664,-0.03849,0.04993,0.14814,-0.07117,0.62256,-0.17691
-0.50674,-0.33027,0.40004,-0.57125,-5.70911,-7.95300,-0.16721,0.07137,0.22304,-0.07171,0.62139,-0.17442
0.52044,-0.06601,1.05183,-0.58075,-5.69294,-7.96389,-0.20128,-0.04407,0.09736,-0.07279,0.61937,-0.17266
-1.09735,-0.15451,0.20240,-0.58637,-5.67822,-7.97398,-0.15390,-0.03568,0.01585,-0.07340,0.61752,-0.17209
-1.03165,0.14883,-0.24626,-0.59057,-5.66881,-7.98036,-0.08265,-0.08173,-0.04702,-0.07387,0.61635,-0.17245
-0.56357,0.38135,-0.55854,-0.59044,-5.66670,-7.98187,0.02259,0.01716,-0.05492,-0.07384,0.61608,-0.17313
-0.16924,0.23891,-0.88378,-0.58374,-5.67256,-7.97820,0.11194,0.07650,-0.03012,-0.07304,0.61681,-0.17359
-0.05336,0.21128,-0.72445,-0.57677,-5.68382,-7.97069,0.16440,0.06850,-0.00386,-0.07223,0.61822,-0.17368
-0.11795,0.33999,-0.25621,-0.57203,-5.69746,-7.96129,0.17117,0.05252,0.00240,-0.07173,0.61993,-0.17352
-0.33529,0.32042,0.18252,-0.56837,-5.70932,-7.95305,0.12158,0.03548,-0.00692,-0.07134,0.62142,-0.17342
-0.50313,0.29018,0.50415,-0.56483,-5.71604,-7.94847,0.04451,0.03504,-0.02056,-0.07094,0.62226,-0.17350
-0.51724,0.29569,0.69505,-0.56120,-5.71646,-7.94843,-0.03728,0.01652,-0.03511,-0.07049,0.62231,-0.17383
-0.45870,0.25474,0.67205,-0.55839,-5.71188,-7.95192,-0.08290,-0.00328,-0.04425,-0.07011,0.62174,-0.17436
-0.27785,0.18885,0.44033,-0.55683,-5.70464,-7.95722,-0.10205,-0.02185,-0.04809,-0.06986,0.62083,-0.17500
-0.08498,0.10554,0.15602,-0.55667,-5.69734,-7.96246,-0.08354,-0.03681,-0.04597,-0.06980,0.61992,-0.17565
0.08946,0.03603,-0.16009,-0.55722,-5.69278,-7.96568,-0.03484,-0.03447,-0.03964,-0.06984,0.61935,-0.17621
0.21488,-0.01991,-0.35161,-0.55710,-5.69235,-7.96600,0.01865,-0.01766,-0.03948,-0.06982,0.61929,-0.17670
0.20745,-0.09941,-0.36039,-0.55596,-5.69576,-7.96365,0.05769,-0.01111,-0.03787,-0.06970,0.61972,-0.17714
0.24774,-0.17987,-0.28538,-0.55465,-5.70104,-7.95995,0.06660,-0.01403,-0.03668,-0.06957,0.62038,-0.17756
0.29152,-0.26990,-0.17222,-0.55413,-5.70647,-7.95610,0.06301,-0.01493,-0.02592,-0.06954,0.62106,-0.17790
0.32252,-0.32932,-0.06156,-0.55356,-5.71080,-7.95303,0.04023,0.00337,-0.01085,-0.06949,0.62160,-0.17808
0.30890,-0.36233,0.02059,-0.55281,-5.71296,-7.95153,0.01195,0.01179,0.00622,-0.06941,0.62187,-0.17809
0.20060,-0.31008,0.08620,-0.55255,-5.71269,-7.95175,-0.01461,0.01221,0.01725,-0.06938,0.62184,-0.17794
0.03405,-0.22614,0.09519,-0.55254,-5.71058,-7.95326,-0.03545,0.01551,0.01634,-0.06936,0.62158,-0.17773
-0.10973,-0.14944,0.11355,-0.55182,-5.70738,-7.95561,-0.04246,0.02051,0.00823,-0.06925,0.62117,-0.17762
-0.18778,-0.06380,0.08382,-0.55053,-5.70369,-7.95835,-0.04525,0.02241,0.00160,-0.06907,0.62071,-0.17759
-0.21431,0.04507,0.03666,-0.54854,-5.70077,-7.96057,-0.02772,0.02546,-0.00874,-0.06880,0.62035,-0.17766
-0.15394,0.12607,-0.03502,-0.54592,-5.69978,-7.96146,0.00444,0.02572,-0.01328,-0.06846,0.62022,-0.17780
-0.10543,0.17895,-0.02357,-0.54325,-5.70117,-7.96065,0.02993,0.01730,-0.02160,-0.06814,0.62040,-0.17801
-0.08774,0.26061,0.06845,-0.54118,-5.70472,-7.95824,0.05214,0.00290,-0.02619,-0.06790,0.62084,-0.17825
-0.04653,0.28749,0.15032,-0.53945,-5.70946,-7.95497,0.06209,0.00744,-0.02563,-0.06771,0.62144,-0.17851
0.00869,0.26008,0.21652,-0.53721,-5.71437,-7.95159,0.05681,0.01223,-0.02491,-0.06746,0.62205,-0.17878
0.06666,0.22470,0.30491,-0.53697,-5.71820,-7.94885,0.03856,-0.02572,0.00465,-0.06745,0.62253,-0.17889
0.32933,0.05627,0.28116,-0.54122,-5.72065,-7.94680,0.02487,-0.05747,0.01917,-0.06800,0.62284,-0.17868
0.19936,0.05845,0.24625,-0.54742,-5.72179,-7.94556,0.00752,-0.06448,0.02130,-0.06879,0.62298,-0.17842
0.00494,0.02520,0.21708,-0.55247,-5.72130,-7.94556,-0.01698,-0.03134,0.01256,-0.06942,0.62292,-0.17819
-0.17618,0.01376,0.12053,-0.55316,-5.71899,-7.94717,-0.03700,0.00904,-0.01398,-0.06949,0.62263,-0.17824
-0.30009,0.00427,0.00889,-0.55045,-5.71594,-7.94955,-0.04008,0.02151,-0.03248,-0.06913,0.62225,-0.17858
-0.15966,-0.06551,-0.15839,-0.54677,-5.71335,-7.95167,-0.02961,0.02082,-0.03892,-0.06865,0.62192,-0.17904
0.04545,-0.15487,-0.28909,-0.54315,-5.71212,-7.95280,-0.00618,0.02041,-0.02538,-0.06819,0.62177,-0.17946
0.17368,-0.21192,-0.35236,-0.54059,-5.71253,-7.95268,0.01339,0.01981,-0.00723,-0.06787,0.62182,-0.17967
0.13990,-0.21489,-0.28795,-0.53883,-5.71345,-7.95214,0.01008,0.02820,0.01660,-0.06766,0.62194,-0.17959
0.19513,-0.26833,-0.14531,-0.53840,-5.71343,-7.95218,-0.00974,0.01583,0.03099,-0.06760,0.62193,-0.17929
0.11644,-0.22050,-0.06583,-0.53977,-5.71203,-7.95310,-0.02235,-0.00198,0.04142,-0.06776,0.62176,-0.17886
0.02901,-0.20607,-0.03844,-0.54286,-5.70985,-7.95445,-0.02641,-0.01575,0.04152,-0.06814,0.62148,-0.17836
-0.05774,-0.16029,-0.06171,-0.54635,-5.70775,-7.95572,-0.02120,-0.01460,0.03840,-0.06857,0.62122,-0.17789
-0.05797,-0.12209,-0.09743,-0.54911,-5.70659,-7.95636,-0.00202,-0.00793,0.03032,-0.06891,0.62108,-0.17751
-0.02903,-0.08945,-0.11807,-0.55111,-5.70721,-7.95578,0.02253,-0.00288,0.02585,-0.06916,0.62115,-0.17716
0.02029,-0.04880,-0.07740,-0.55300,-5.71000,-7.95365,0.04973,-0.00891,0.02480,-0.06942,0.62150,-0.17681
0.06561,0.01756,0.03334,-0.55582,-5.71471,-7.95006,0.06677,-0.02208,0.02651,-0.06980,0.62209,-0.17644
0.10268,0.11440,0.19229,-0.55952,-5.72012,-7.94591,0.07208,-0.02520,0.03257,-0.07030,0.62277,-0.17602
0.12780,0.16178,0.32979,-0.56294,-5.72501,-7.94215,0.05632,-0.01115,0.03975,-0.07076,0.62339,-0.17553
0.12208,0.18996,0.46054,-0.56576,-5.72850,-7.93943,0.03361,-0.00424,0.04260,-0.07114,0.62383,-0.17498
0.04161,0.22633,0.54859,-0.56804,-5.72985,-7.93830,0.00281,0.00061,0.03439,-0.07144,0.62400,-0.17448
-0.06653,0.25106,0.57654,-0.56913,-5.72854,-7.93916,-0.02947,0.01342,0.02084,-0.07156,0.62383,-0.17417
-0.16414,0.21645,0.52829,-0.56759,-5.72506,-7.94178,-0.05476,0.03800,-0.00224,-0.07135,0.62339,-0.17409
-0.18503,0.16625,0.42210,-0.56315,-5.71960,-7.94603,-0.08113,0.05562,-0.01540,-0.07075,0.62271,-0.17428
-0.14398,0.09240,0.28917,-0.55767,-5.71294,-7.95121,-0.08807,0.05685,-0.01616,-0.07002,0.62187,-0.17456
-0.05006,0.02090,0.13104,-0.55253,-5.70608,-7.95649,-0.08676,0.05437,-0.00380,-0.06933,0.62101,-0.17476
0.01530,-0.02287,0.01134,-0.54876,-5.69912,-7.96174,-0.08639,0.04430,0.00986,-0.06882,0.62014,-0.17480
0.02406,-0.05533,-0.05736,-0.54675,-5.69180,-7.96711,-0.09451,0.03355,0.02639,-0.06852,0.61922,-0.17464
-0.02550,-0.09801,-0.14755,-0.54626,-5.68383,-7.97283,-0.10216,0.02113,0.03150,-0.06841,0.61823,-0.17437
-0.12303,-0.09564,-0.22435,-0.54660,-5.67544,-7.97878,-0.10155,0.01308,0.02686,-0.06840,0.61718,-0.17409
-0.18873,-0.10412,-0.32445,-0.54659,-5.66785,-7.98418,-0.08350,0.01807,0.01967,-0.06835,0.61623,-0.17389
-0.24637,-0.09333,-0.43978,-0.54566,-5.66218,-7.98826,-0.05441,0.01947,0.00322,-0.06820,0.61552,-0.17381
-0.23434,-0.07625,-0.48092,-0.54423,-5.65936,-7.99036,-0.02056,0.01549,-0.00540,-0.06801,0.61517,-0.17385
-0.16755,-0.07966,-0.49825,-0.54278,-5.65924,-7.99054,0.01597,0.00877,-0.01097,-0.06782,0.61515,-0.17395
-0.12188,-0.06733,-0.47620,-0.54192,-5.66199,-7.98865,0.04882,-0.00610,-0.01187,-0.06773,0.61549,-0.17406
-0.09093,-0.01337,-0.38089,-0.54249,-5.66702,-7.98504,0.07281,-0.01998,-0.00875,-0.06783,0.61612,-0.17412
-0.01387,0.02971,-0.27905,-0.54428,-5.67389,-7.98004,0.09612,-0.02941,0.00023,-0.06810,0.61698,-0.17409
0.02407,0.05735,-0.15597,-0.54690,-5.68193,-7.97414,0.10580,-0.03515,0.00389,-0.06848,0.61799,-0.17400
0.04057,0.10771,-0.01613,-0.55009,-5.69054,-7.96778,0.11065,-0.04052,0.00170,-0.06893,0.61906,-0.17388
0.02713,0.16123,0.10997,-0.55326,-5.69887,-7.96161,0.10093,-0.03559,-0.00130,-0.06938,0.62011,-0.17376
-0.01528,0.20422,0.23107,-0.55604,-5.70669,-7.95581,0.09213,-0.03669,-0.00765,-0.06978,0.62109,-0.17371
-0.03429,0.21817,0.32243,-0.55798,-5.71347,-7.95081,0.07557,-0.02492,-0.01584,-0.07006,0.62194,-0.17376
-0.02959,0.20122,0.40221,-0.55833,-5.71881,-7.94694,0.05439,-0.01150,-0.02299,-0.07014,0.62261,-0.17395
-0.03807,0.17616,0.47067,-0.55748,-5.72233,-7.94447,0.02933,-0.00224,-0.02544,-0.07006,0.62305,-0.17420
-0.03734,0.12599,0.49165,-0.55553,-5.72393,-7.94345,0.00615,0.00711,-0.02681,-0.06982,0.62325,-0.17453
-0.02752,0.08951,0.46015,-0.55352,-5.72381,-7.94367,-0.01449,0.00884,-0.02072,-0.06957,0.62324,-0.17482
-0.04236,0.05202,0.40942,-0.55140,-5.72194,-7.94517,-0.03646,0.01230,-0.02208,-0.06929,0.62300,-0.17512
-0.04664,0.02113,0.34236,-0.54877,-5.71828,-7.94799,-0.05677,0.02084,-0.01829,-0.06894,0.62254,-0.17541
-0.05690,0.00034,0.24754,-0.54569,-5.71351,-7.95163,-0.06918,0.02897,-0.01929,-0.06852,0.62194,-0.17569
-0.11069,-0.02532,0.17154,-0.54188,-5.70760,-7.95614,-0.08119,0.03535,-0.02626,-0.06800,0.62120,-0.17603
-0.12241,-0.05486,0.05706,-0.53719,-5.70096,-7.96121,-0.09149,0.04201,-0.03142,-0.06737,0.62037,-0.17647
-0.05296,-0.09722,-0.05351,-0.53183,-5.69390,-7.96662,-0.08920,0.04941,-0.03076,-0.06666,0.61949,-0.17692
0.01153,-0.15491,-0.15866,-0.52688,-5.68739,-7.97160,-0.07633,0.03513,-0.02764,-0.06600,0.61867,-0.17733
0.03726,-0.16118,-0.24254,-0.52403,-5.68231,-7.97540,-0.05300,0.00549,-0.01429,-0.06561,0.61804,-0.17762
0.08863,-0.12647,-0.28609,-0.52392,-5.67917,-7.97765,-0.02748,-0.01090,-0.00349,-0.06558,0.61764,-0.17775
0.03177,-0.12163,-0.29279,-0.52453,-5.67802,-7.97843,-0.00040,-0.00501,-0.00138,-0.06565,0.61750,-0.17778
-0.02422,-0.08670,-0.28724,-0.52465,-5.67884,-7.97784,0.01896,-0.00560,-0.00226,-0.06567,0.61760,-0.17781
-0.09721,-0.03339,-0.21087,-0.52498,-5.68082,-7.97641,0.02872,-0.01125,-0.00733,-0.06572,0.61785,-0.17785
-0.13950,0.03417,-0.10569,-0.52519,-5.68314,-7.97474,0.02862,-0.01213,-0.01802,-0.06576,0.61814,-0.17797
-0.11786,0.06542,-0.05414,-0.52513,-5.68536,-7.97316,0.02459,-0.01883,-0.02845,-0.06577,0.61842,-0.17823
-0.14721,0.12820,-0.00523,-0.52511,-5.68769,-7.97150,0.02740,-0.02912,-0.03888,-0.06578,0.61871,-0.17862
-0.15142,0.21280,0.00090,-0.52494,-5.69044,-7.96955,0.03553,-0.02926,-0.04690,-0.06577,0.61905,-0.17912
-0.19479,0.25268,-0.01033,-0.52452,-5.69426,-7.96685,0.05219,-0.03587,-0.05983,-0.06574,0.61953,-0.17973
-0.26477,0.30947,0.01186,-0.52337,-5.69911,-7.96345,0.06203,-0.03812,-0.08485,-0.06563,0.62014,-0.18056
-0.29366,0.36075,0.04946,-0.52620,-5.70401,-7.95976,0.05472,0.00485,0.32304,-0.06601,0.62075,-0.18037
6.19924,-1.14575,0.44927,-0.54952,-5.70541,-7.95718,0.04980,-0.10508,0.13948,-0.06895,0.62093,-0.17679
-1.65472,-1.05669,0.46111,-0.55633,-5.70618,-7.95616,-0.03608,0.10483,0.17892,-0.06981,0.62102,-0.17494
0.39408,0.48732,1.37230,-0.55987,-5.69741,-7.96219,-0.15867,-0.02040,0.06991,-0.07020,0.61992,-0.17330
-1.14764,0.08378,0.95440,-0.56482,-5.68367,-7.97165,-0.17042,-0.07579,-0.03928,-0.07073,0.61820,-0.17337
-1.16096,0.22129,-0.17201,-0.56915,-5.67349,-7.97860,-0.08991,-0.12258,-0.08431,-0.07121,0.61693,-0.17430
-0.47939,0.23820,-0.67278,-0.57241,-5.66990,-7.98091,-0.00509,-0.05122,-0.06439,-0.07160,0.61648,-0.17527
0.00024,0.09781,-1.05046,-0.56931,-5.67315,-7.97882,0.07729,0.05413,-0.02611,-0.07123,0.61689,-0.17582
0.14915,-0.12399,-1.07491,-0.56409,-5.68090,-7.97368,0.11311,0.06449,0.02304,-0.07063,0.61786,-0.17575
-0.02098,-0.02762,-0.68421,-0.56186,-5.68974,-7.96753,0.10848,0.03331,0.03378,-0.07040,0.61896,-0.17529
-0.43274,0.05512,-0.30022,-0.56160,-5.69706,-7.96232,0.07464,0.02109,0.02071,-0.07042,0.61988,-0.17485
-0.73215,0.05538,0.01255,-0.55967,-5.70076,-7.95981,0.02084,0.04034,-0.00574,-0.07020,0.62034,-0.17471
-0.75750,0.09322,0.20975,-0.55422,-5.70029,-7.96052,-0.03108,0.06845,-0.03296,-0.06951,0.62029,-0.17495
-0.62201,0.05689,0.22602,-0.54606,-5.69674,-7.96363,-0.05858,0.06453,-0.05504,-0.06846,0.61984,-0.17555
-0.36019,0.02104,0.15915,-0.53794,-5.69245,-7.96724,-0.05316,0.05226,-0.05839,-0.06742,0.61930,-0.17632
-0.03773,0.01410,0.09612,-0.53119,-5.69000,-7.96945,-0.01607,0.03561,-0.05182,-0.06655,0.61900,-0.17702
0.12133,0.04460,0.09379,-0.52685,-5.69072,-7.96922,0.02573,0.00341,-0.04328,-0.06601,0.61909,-0.17760
0.18927,0.09066,0.19043,-0.52565,-5.69444,-7.96664,0.05734,-0.02722,-0.04040,-0.06589,0.61955,-0.17807
0.27774,0.13486,0.35991,-0.52584,-5.69973,-7.96285,0.06588,-0.03361,-0.04037,-0.06594,0.62022,-0.17852
0.31373,0.10877,0.50927,-0.52591,-5.70492,-7.95913,0.05543,-0.02386,-0.03493,-0.06598,0.62087,-0.17894
0.40016,0.05677,0.60894,-0.52616,-5.70843,-7.95659,0.02939,-0.02717,-0.02338,-0.06603,0.62131,-0.17928
0.45420,-0.00478,0.60042,-0.52767,-5.70973,-7.95556,0.00097,-0.03901,-0.00828,-0.06623,0.62147,-0.17948
0.46592,-0.08037,0.53242,-0.53086,-5.70911,-7.95580,-0.01887,-0.04308,0.00735,-0.06663,0.62139,-0.17951
0.40659,-0.14210,0.40127,-0.53453,-5.70678,-7.95722,-0.03710,-0.02957,0.01612,-0.06707,0.62110,-0.17938
0.32784,-0.16011,0.24052,-0.53763,-5.70299,-7.95973,-0.05356,-0.01839,0.02783,-0.06744,0.62062,-0.17913
0.20067,-0.14682,0.10088,-0.54095,-5.69833,-7.96284,-0.06028,-0.02354,0.03319,-0.06783,0.62004,-0.17881
0.05008,-0.13974,-0.05688,-0.54463,-5.69343,-7.96609,-0.05854,-0.02376,0.03019,-0.06826,0.61943,-0.17846
-0.05544,-0.13487,-0.22325,-0.54805,-5.68887,-7.96911,-0.05330,-0.01880,0.02954,-0.06866,0.61886,-0.17817
-0.12777,-0.13149,-0.32682,-0.55024,-5.68492,-7.97178,-0.04149,0.00570,0.02304,-0.06891,0.61836,-0.17788
-0.17857,-0.14335,-0.40951,-0.54971,-5.68175,-7.97408,-0.03516,0.03948,0.01887,-0.06883,0.61796,-0.17766
-0.18691,-0.14113,-0.42987,-0.54662,-5.67932,-7.97602,-0.02267,0.05968,0.01904,-0.06843,0.61766,-0.17747
-0.18565,-0.12535,-0.42656,-0.54308,-5.67774,-7.97738,-0.01240,0.05563,0.01360,-0.06797,0.61746,-0.17727
-0.18164,-0.07837,-0.37990,-0.53976,-5.67684,-7.97825,-0.00783,0.04606,0.01270,-0.06755,0.61735,-0.17712
-0.16166,-0.03229,-0.31432,-0.53730,-5.67638,-7.97875,-0.00348,0.03131,0.01416,-0.06724,0.61729,-0.17696
-0.16644,0.03432,-0.21563,-0.53596,-5.67640,-7.97882,0.00607,0.01973,0.01388,-0.06707,0.61730,-0.17678
-0.20022,0.09341,-0.14340,-0.53540,-5.67714,-7.97833,0.01221,0.01100,0.00683,-0.06701,0.61739,-0.17664
-0.21048,0.11729,-0.02461,-0.53487,-5.67828,-7.97756,0.01564,0.01112,0.00309,-0.06695,0.61753,-0.17655
-0.15224,0.13293,0.09751,-0.53399,-5.67939,-7.97682,0.01186,0.01292,-0.00708,-0.06684,0.61767,-0.17656
-0.12415,0.12060,0.16626,-0.53201,-5.68054,-7.97614,0.01606,0.02213,-0.01253,-0.06660,0.61781,-0.17666
-0.09572,0.12237,0.17835,-0.52917,-5.68231,-7.97507,0.02289,0.02699,-0.02137,-0.06626,0.61803,-0.17685
0.03083,0.12626,0.19441,-0.52628,-5.68440,-7.97377,0.02613,0.01851,-0.01493,-0.06591,0.61830,-0.17707
0.11997,0.15120,0.25495,-0.52459,-5.68675,-7.97221,0.03072,0.00658,-0.00616,-0.06571,0.61859,-0.17718
0.10059,0.13827,0.31117,-0.52422,-5.68893,-7.97067,0.02373,-0.00445,-0.00228,-0.06567,0.61886,-0.17722
0.04391,0.14406,0.38067,-0.52514,-5.69022,-7.96969,0.00984,-0.02452,0.00115,-0.06580,0.61903,-0.17722
0.05800,0.08489,0.37243,-0.52816,-5.69016,-7.96953,-0.00890,-0.03786,0.00548,-0.06618,0.61902,-0.17715
0.01244,0.02327,0.33380,-0.53079,-5.68870,-7.97040,-0.02701,-0.02311,-0.00885,-0.06650,0.61883,-0.17718
-0.10675,-0.01396,0.26097,-0.53011,-5.68619,-7.97224,-0.03784,0.02631,-0.01939,-0.06640,0.61852,-0.17738
-0.09489,-0.05910,0.17721,-0.52476,-5.68264,-7.97512,-0.05444,0.06653,-0.03149,-0.06571,0.61808,-0.17775
-0.03489,-0.08616,0.13596,-0.51757,-5.67818,-7.97877,-0.06316,0.06322,-0.02912,-0.06478,0.61752,-0.17819
0.08996,-0.10843,0.02918,-0.51224,-5.67312,-7.98271,-0.06469,0.03567,-0.01954,-0.06408,0.61689,-0.17855
0.18408,-0.11742,-0.05096,-0.50999,-5.66816,-7.98638,-0.06069,0.01314,-0.00103,-0.06377,0.61627,-0.17871
0.17349,-0.12144,-0.12578,-0.50973,-5.66355,-7.98966,-0.05429,0.00702,0.01591,-0.06371,0.61569,-0.17866
0.14136,-0.13894,-0.19050,-0.51036,-5.65937,-7.99259,-0.05117,0.01030,0.02849,-0.06377,0.61517,-0.17844
0.07462,-0.11609,-0.20861,-0.51126,-5.65528,-7.99542,-0.04977,0.01156,0.03269,-0.06386,0.61466,-0.17810
0.01939,-0.09358,-0.24787,-0.51230,-5.65146,-7.99806,-0.04097,0.00984,0.03662,-0.06397,0.61418,-0.17771
-0.03186,-0.12944,-0.30926,-0.51342,-5.64866,-7.99996,-0.02262,0.01214,0.03463,-0.06409,0.61383,-0.17731
-0.05012,-0.14895,-0.35231,-0.51476,-5.64742,-8.00076,-0.00457,0.00678,0.03913,-0.06425,0.61368,-0.17689
0.02709,-0.10358,-0.35747,-0.51701,-5.64774,-8.00038,0.01636,-0.00469,0.04354,-0.06453,0.61372,-0.17637
0.03155,-0.08881,-0.32809,-0.52056,-5.65009,-7.99849,0.04729,-0.02452,0.04109,-0.06499,0.61401,-0.17584
-0.02815,-0.07096,-0.25864,-0.52551,-5.65448,-7.99507,0.06917,-0.03673,0.04088,-0.06563,0.61456,-0.17528
-0.04890,-0.00361,-0.17529,-0.53079,-5.66032,-7.99058,0.08421,-0.04592,0.03136,-0.06633,0.61529,-0.17478
-0.10632,0.07045,-0.05191,-0.53563,-5.66735,-7.98528,0.09347,-0.03848,0.02071,-0.06698,0.61616,-0.17439
-0.08024,0.13060,0.08265,-0.53911,-5.67497,-7.97963,0.09577,-0.02536,0.01423,-0.06746,0.61712,-0.17410
-0.03819,0.16597,0.14657,-0.54135,-5.68251,-7.97411,0.09330,-0.01851,0.00771,-0.06778,0.61806,-0.17390
-0.00535,0.19637,0.25117,-0.54323,-5.68987,-7.96873,0.09153,-0.02330,0.00291,-0.06806,0.61898,-0.17376
-0.00321,0.20011,0.33574,-0.54536,-5.69675,-7.96367,0.08396,-0.02637,0.00045,-0.06837,0.61984,-0.17367
-0.01258,0.17706,0.39733,-0.54722,-5.70273,-7.95926,0.06528,-0.01935,-0.00335,-0.06864,0.62059,-0.17363
0.00751,0.13730,0.49006,-0.54815,-5.70666,-7.95638,0.03344,-0.00644,-0.00183,-0.06879,0.62108,-0.17361
0.00046,0.10785,0.52999,-0.54813,-5.70774,-7.95560,-0.00657,0.00470,0.00088,-0.06879,0.62122,-0.17359
-0.05881,0.06266,0.56576,-0.54753,-5.70549,-7.95726,-0.05122,0.01221,0.00513,-0.06870,0.62094,-0.17357
-0.07980,0.02849,0.52396,-0.54644,-5.69961,-7.96155,-0.09417,0.02312,0.00437,-0.06853,0.62020,-0.17358
-0.11204,-0.00002,0.39917,-0.54457,-5.69100,-7.96784,-0.12025,0.03397,0.00478,-0.06824,0.61912,-0.17361
-0.11823,-0.00651,0.23355,-0.54197,-5.68092,-7.97520,-0.13129,0.03636,0.00328,-0.06785,0.61786,-0.17365
-0.09993,-0.06134,0.06591,-0.53903,-5.67053,-7.98279,-0.12340,0.04221,0.00409,-0.06742,0.61656,-0.17371
-0.07814,-0.09582,-0.10679,-0.53612,-5.66134,-7.98951,-0.10424,0.03886,0.00428,-0.06700,0.61541,-0.17374
-0.08593,-0.09390,-0.23472,-0.53402,-5.65413,-7.99475,-0.07279,0.02362,0.00732,-0.06670,0.61451,-0.17373
-0.11973,-0.08456,-0.30588,-0.53299,-5.64926,-7.99826,-0.04700,0.01101,0.00166,-0.06654,0.61391,-0.17373
-0.18307,-0.06447,-0.34135,-0.53205,-5.64660,-8.00020,-0.02180,0.01090,-0.00246,-0.06641,0.61357,-0.17377
-0.18295,-0.05051,-0.34444,-0.53068,-5.64559,-8.00100,-0.00629,0.01362,-0.01121,-0.06623,0.61345,-0.17387
-0.16717,-0.01710,-0.30764,-0.52895,-5.64578,-8.00098,0.00417,0.01341,-0.01493,-0.06601,0.61347,-0.17402
-0.13871,-0.00151,-0.27976,-0.52733,-5.64672,-8.00043,0.01604,0.00483,-0.01501,-0.06582,0.61359,-0.17419
-0.04422,0.01136,-0.25210,-0.52649,-5.64851,-7.99922,0.02805,-0.00617,-0.01305,-0.06572,0.61381,-0.17435
-0.00041,0.04643,-0.21407,-0.52692,-5.65141,-7.99715,0.04194,-0.01773,-0.00920,-0.06579,0.61417,-0.17444
0.01179,0.06754,-0.16845,-0.52863,-5.65530,-7.99428,0.05353,-0.03348,-0.00373,-0.06603,0.61466,-0.17448
0.06122,0.09699,-0.11010,-0.53138,-5.65991,-7.99083,0.05940,-0.03971,-0.00349,-0.06640,0.61524,-0.17447
0.04962,0.14553,-0.03390,-0.53445,-5.66506,-7.98698,0.06759,-0.04321,-0.00496,-0.06682,0.61588,-0.17447
-0.01068,0.17259,0.07043,-0.53729,-5.67087,-7.98266,0.07325,-0.03810,-0.01418,-0.06721,0.61660,-0.17452
-0.03006,0.21293,0.13627,-0.53872,-5.67725,-7.97803,0.07928,-0.02173,-0.02303,-0.06742,0.61740,-0.17468
-0.02489,0.19153,0.22077,-0.53820,-5.68368,-7.97349,0.07710,-0.00718,-0.03565,-0.06740,0.61821,-0.17496
-0.04050,0.17467,0.27807,-0.53651,-5.68972,-7.96930,0.06798,-0.00747,-0.04323,-0.06722,0.61896,-0.17538
-0.04402,0.11881,0.34103,-0.53478,-5.69476,-7.96581,0.04994,-0.01253,-0.04777,-0.06703,0.61959,-0.17589
-0.01861,0.08905,0.40070,-0.53280,-5.69792,-7.96368,0.02311,-0.00487,-0.04582,-0.06680,0.61999,-0.17643
0.00562,0.04221,0.40533,-0.53010,-5.69881,-7.96322,-0.00763,0.00831,-0.04249,-0.06647,0.62010,-0.17696
-0.02270,-0.04421,0.37359,-0.52632,-5.69709,-7.96471,-0.03902,0.02134,-0.04128,-0.06599,0.61988,-0.17750
-0.03558,-0.10187,0.31455,-0.52167,-5.69344,-7.96762,-0.05986,0.03836,-0.03549,-0.06538,0.61943,-0.17801
-0.05120,-0.16302,0.20462,-0.51637,-5.68841,-7.97156,-0.06926,0.04166,-0.03515,-0.06469,0.61880,-0.17850
-0.06222,-0.20594,0.09697,-0.51089,-5.68290,-7.97584,-0.07287,0.04033,-0.03723,-0.06397,0.61811,-0.17901
-0.09178,-0.20991,0.03821,-0.50558,-5.67743,-7.98007,-0.06798,0.03609,-0.04115,-0.06327,0.61742,-0.17956
-0.04430,-0.19499,-0.04557,-0.50038,-5.67260,-7.98384,-0.05922,0.04099,-0.03222,-0.06259,0.61682,-0.18007
0.65584,-0.23714,-0.10143,-0.50321,-5.66652,-7.98798,-0.09886,0.07085,0.48322,-0.06291,0.61606,-0.17857
5.72336,-1.98376,0.45519,-0.52510,-5.65824,-7.99244,-0.06071,-0.01159,0.18227,-0.06561,0.61503,-0.17446
-1.77413,-0.87532,0.30312,-0.53448,-5.64873,-7.99853,-0.16313,0.03523,0.25039,-0.06672,0.61384,-0.17175
0.34676,0.44485,1.24248,-0.54997,-5.63099,-8.00999,-0.23936,-0.14708,0.09781,-0.06855,0.61163,-0.16976
-1.30939,-0.01187,0.34977,-0.56048,-5.61241,-8.02229,-0.20467,-0.01867,0.03224,-0.06975,0.60932,-0.16919
-1.06617,0.18615,-0.50515,-0.56099,-5.59870,-8.03183,-0.13801,-0.02865,-0.04254,-0.06973,0.60761,-0.16945
-0.69360,0.51342,-0.70152,-0.56261,-5.59152,-8.03671,-0.04330,-0.05674,-0.03489,-0.06989,0.60672,-0.17002
-0.30841,0.54667,-0.95538,-0.56443,-5.59230,-8.03604,0.05334,-0.01483,-0.00934,-0.07012,0.60682,-0.17028
-0.27331,0.45736,-1.01188,-0.56331,-5.59876,-8.03162,0.10440,0.04486,0.01369,-0.07002,0.60762,-0.17019
-0.33152,0.51077,-0.63494,-0.55943,-5.60773,-8.02563,0.11850,0.07154,0.02149,-0.06959,0.60873,-0.16986
-0.54424,0.55252,-0.18445,-0.55485,-5.61641,-8.01988,0.09683,0.05837,0.00038,-0.06907,0.60981,-0.16962
-0.74257,0.43186,0.09090,-0.55044,-5.62279,-8.01571,0.06091,0.02977,-0.02710,-0.06856,0.61061,-0.16973
-0.61232,0.37122,0.28023,-0.54693,-5.62649,-8.01336,0.02589,0.01122,-0.04193,-0.06815,0.61107,-0.17010
-0.40389,0.24139,0.35678,-0.54377,-5.62775,-8.01269,0.00192,0.00371,-0.05136,-0.06776,0.61122,-0.17065
-0.22350,0.06398,0.29792,-0.54100,-5.62766,-8.01294,-0.00948,-0.01128,-0.05543,-0.06741,0.61121,-0.17133
0.02951,-0.04082,0.21040,-0.53933,-5.62715,-8.01340,-0.00791,-0.01895,-0.04783,-0.06720,0.61115,-0.17197
0.18899,-0.12024,0.14224,-0.53854,-5.62734,-8.01332,0.00652,-0.02398,-0.03755,-0.06711,0.61117,-0.17250
0.31073,-0.17046,0.05996,-0.53908,-5.62875,-8.01230,0.02433,-0.03077,-0.02252,-0.06718,0.61135,-0.17285
0.36172,-0.21435,0.01229,-0.54039,-5.63109,-8.01057,0.03277,-0.02817,-0.01622,-0.06736,0.61164,-0.17307
0.36939,-0.24117,0.01084,-0.54148,-5.63390,-8.00852,0.03437,-0.01013,-0.00683,-0.06751,0.61199,-0.17317
0.32217,-0.27473,0.05484,-0.54124,-5.63625,-8.00688,0.02313,0.00779,-0.00532,-0.06749,0.61228,-0.17322
0.24389,-0.25830,0.10377,-0.54018,-5.63742,-8.00613,0.00683,0.01761,-0.00324,-0.06737,0.61243,-0.17324
0.14893,-0.20580,0.10799,-0.53859,-5.63710,-8.00646,-0.01580,0.02277,-0.00306,-0.06717,0.61239,-0.17327
0.06885,-0.15720,0.07091,-0.53632,-5.63557,-8.00769,-0.02418,0.03062,-0.00021,-0.06688,0.61220,-0.17330
0.02228,-0.12793,-0.00534,-0.53404,-5.63357,-8.00925,-0.02625,0.02927,0.00378,-0.06658,0.61195,-0.17330
-0.04532,-0.05608,-0.08048,-0.53228,-5.63165,-8.01072,-0.01969,0.02305,0.00706,-0.06635,0.61171,-0.17324
-0.10517,0.01879,-0.11145,-0.53078,-5.63050,-8.01163,-0.00845,0.02026,0.00637,-0.06616,0.61157,-0.17318
-0.19778,0.07529,-0.13646,-0.52946,-5.63044,-8.01175,0.00748,0.01924,0.00252,-0.06599,0.61156,-0.17313
-0.22104,0.10818,-0.12195,-0.52774,-5.63145,-8.01116,0.01419,0.01810,-0.00545,-0.06578,0.61169,-0.17314
-0.24867,0.14182,-0.05475,-0.52615,-5.63307,-8.01012,0.02395,0.00667,-0.01211,-0.06559,0.61189,-0.17323
-0.32461,0.17925,0.00853,-0.52488,-5.63534,-8.00861,0.02909,0.00243,-0.02307,-0.06545,0.61217,-0.17343
-0.24338,0.16476,0.07990,-0.52321,-5.63806,-8.00680,0.03434,0.00797,-0.02479,-0.06525,0.61251,-0.17370
-0.11864,0.16181,0.17560,-0.52136,-5.64109,-8.00479,0.03707,0.00494,-0.02289,-0.06504,0.61289,-0.17395
-0.02210,0.13505,0.21219,-0.52034,-5.64426,-8.00262,0.03708,-0.01017,-0.02012,-0.06493,0.61328,-0.17418
0.03528,0.08664,0.24650,-0.52100,-5.64732,-8.00042,0.03503,-0.02672,-0.01340,-0.06503,0.61366,-0.17434
0.06574,0.08350,0.28872,-0.52288,-5.64987,-7.99850,0.02811,-0.03417,-0.00677,-0.06528,0.61398,-0.17443
0.07159,0.06176,0.29984,-0.52544,-5.65147,-7.99720,0.00992,-0.03787,-0.00936,-0.06561,0.61418,-0.17451
0.06746,0.02106,0.23417,-0.52774,-5.65207,-7.99662,0.00349,-0.03117,-0.01172,-0.06590,0.61426,-0.17463
0.09452,-0.03387,0.14756,-0.52907,-5.65191,-7.99665,-0.00585,-0.01139,-0.01208,-0.06607,0.61424,-0.17476
0.15160,-0.08107,0.08742,-0.52809,-5.65155,-7.99697,-0.00436,0.01915,-0.01307,-0.06594,0.61419,-0.17491
0.12968,-0.09297,0.02144,-0.52532,-5.65117,-7.99742,-0.00859,0.02646,-0.01615,-0.06559,0.61414,-0.17511
0.06488,-0.07142,0.01536,-0.52263,-5.65027,-7.99823,-0.01735,0.01164,-0.02218,-0.06525,0.61403,-0.17535
0.03953,-0.08018,-0.02094,-0.52106,-5.64884,-7.99934,-0.01819,0.00046,-0.01597,-0.06505,0.61385,-0.17561
0.08510,-0.11207,-0.09040,-0.52025,-5.64748,-8.00035,-0.01802,0.00679,-0.00650,-0.06494,0.61368,-0.17575
0.07574,-0.10944,-0.14651,-0.51941,-5.64607,-8.00141,-0.01753,0.01109,0.00383,-0.06482,0.61351,-0.17577
-0.00289,-0.09990,-0.21392,-0.51935,-5.64469,-8.00238,-0.01730,0.00280,0.00987,-0.06481,0.61334,-0.17568
-0.05831,-0.08023,-0.19186,-0.52019,-5.64326,-8.00334,-0.01934,-0.00058,0.01405,-0.06491,0.61316,-0.17552
-0.10197,-0.04220,-0.16712,-0.52097,-5.64163,-8.00443,-0.02108,0.00407,0.01565,-0.06499,0.61295,-0.17535
-0.14763,-0.03472,-0.13254,-0.52080,-5.64014,-8.00550,-0.01471,0.01442,0.00832,-0.06496,0.61277,-0.17522
-0.19996,-0.04394,-0.11483,-0.51995,-5.63929,-8.00615,-0.00558,0.01241,-0.00002,-0.06485,0.61266,-0.17518
-0.19864,-0.02667,-0.05999,-0.51873,-5.63951,-8.00608,0.00492,0.01190,-0.01020,-0.06470,0.61269,-0.17525
-0.07445,-0.04051,0.00167,-0.51722,-5.64048,-8.00549,0.01731,0.00871,-0.01003,-0.06452,0.61281,-0.17535
-0.03247,-0.02724,0.07455,-0.51595,-5.64208,-8.00444,0.02295,0.00399,-0.01567,-0.06437,0.61301,-0.17550
-0.05329,0.03564,0.14076,-0.51474,-5.64421,-8.00302,0.02972,0.00952,-0.01576,-0.06423,0.61328,-0.17566
-0.04883,0.05627,0.15990,-0.51291,-5.64674,-8.00136,0.02776,0.01526,-0.02151,-0.06401,0.61359,-0.17587
-0.07649,0.07717,0.19204,-0.51024,-5.64893,-7.99998,0.02410,0.01585,-0.02484,-0.06369,0.61386,-0.17614
0.02263,0.05449,0.22161,-0.50955,-5.65034,-7.99903,0.01089,-0.01013,0.00561,-0.06362,0.61404,-0.17622
0.34205,-0.05260,0.22918,-0.51234,-5.65039,-7.99881,-0.00776,-0.03488,0.02176,-0.06396,0.61405,-0.17604
0.20734,-0.01810,0.24430,-0.51679,-5.64913,-7.99942,-0.01887,-0.03255,0.03315,-0.06451,0.61389,-0.17570
0.04712,-0.02850,0.23885,-0.51997,-5.64681,-8.00085,-0.03829,-0.00113,0.02381,-0.06490,0.61360,-0.17534
-0.14255,0.01295,0.24878,-0.51929,-5.64277,-8.00374,-0.06107,0.03520,0.00492,-0.06479,0.61310,-0.17522
-0.20805,0.02900,0.20886,-0.51515,-5.63757,-8.00767,-0.06587,0.06630,-0.00957,-0.06424,0.61245,-0.17530
-0.10361,0.04080,0.09300,-0.50885,-5.63246,-8.01167,-0.06334,0.07152,-0.01724,-0.06343,0.61181,-0.17552
0.06805,0.00885,-0.02756,-0.50349,-5.62819,-8.01501,-0.04752,0.04772,-0.00009,-0.06274,0.61128,-0.17568
0.22735,-0.05131,-0.11170,-0.50118,-5.62504,-8.01736,-0.03110,0.01927,0.01565,-0.06243,0.61089,-0.17561
0.27426,-0.04140,-0.13051,-0.50201,-5.62298,-8.01876,-0.01754,-0.00365,0.03498,-0.06252,0.61063,-0.17531
0.20047,-0.04618,-0.12551,-0.50498,-5.62134,-8.01972,-0.01782,-0.01596,0.04275,-0.06288,0.61043,-0.17487
0.06469,-0.03411,-0.09366,-0.50837,-5.61980,-8.02059,-0.01746,-0.00435,0.04294,-0.06330,0.61023,-0.17435
-0.05678,-0.04629,-0.10542,-0.51049,-5.61824,-8.02154,-0.01484,0.01164,0.03725,-0.06355,0.61004,-0.17386
-0.08908,-0.05430,-0.12407,-0.51112,-5.61682,-8.02250,-0.01313,0.02078,0.03647,-0.06362,0.60986,-0.17343
-0.04015,-0.06998,-0.14809,-0.51156,-5.61625,-8.02287,0.00414,0.01804,0.03866,-0.06368,0.60979,-0.17297
-0.00521,-0.08967,-0.15687,-0.51284,-5.61691,-8.02232,0.01728,0.00433,0.04086,-0.06384,0.60988,-0.17249
-0.04245,-0.09772,-0.10267,-0.51540,-5.61814,-8.02130,0.01932,-0.00724,0.04418,-0.06417,0.61003,-0.17196
-0.03007,-0.10483,-0.03737,-0.51865,-5.61925,-8.02031,0.01670,-0.01059,0.04742,-0.06458,0.61017,-0.17139
-0.01144,-0.07950,-0.00397,-0.52247,-5.62035,-8.01929,0.01874,-0.01613,0.04831,-0.06506,0.61030,-0.17079
-0.07764,-0.02925,0.01100,-0.52660,-5.62166,-8.01810,0.01904,-0.01904,0.04425,-0.06558,0.61047,-0.17019
-0.09637,0.02060,0.04385,-0.53017,-5.62334,-8.01670,0.02684,-0.00809,0.04056,-0.06604,0.61068,-0.16965
-0.13181,0.05487,0.05454,-0.53258,-5.62558,-8.01496,0.03154,-0.00326,0.02989,-0.06635,0.61095,-0.16919
-0.17818,0.09507,0.09070,-0.53410,-5.62807,-8.01311,0.03404,-0.00385,0.01916,-0.06655,0.61126,-0.16888
-0.13117,0.12948,0.14869,-0.53531,-5.63061,-8.01124,0.02989,-0.00070,0.01484,-0.06672,0.61158,-0.16864
-0.10501,0.13859,0.17852,-0.53574,-5.63283,-8.00965,0.02517,0.00387,0.00556,-0.06679,0.61186,-0.16850
-0.09791,0.13838,0.20151,-0.53550,-5.63442,-8.00855,0.01593,0.00915,0.00617,-0.06677,0.61206,-0.16841
-0.07924,0.15260,0.20900,-0.53487,-5.63533,-8.00796,0.00831,0.00900,0.00322,-0.06669,0.61217,-0.16835
-0.08112,0.14506,0.19074,-0.53464,-5.63557,-8.00780,-0.00186,-0.00217,0.00027,-0.06667,0.61220,-0.16833
-0.09277,0.15566,0.18919,-0.53526,-5.63494,-8.00821,-0.01543,-0.01484,-0.00274,-0.06674,0.61212,-0.16835
-0.11306,0.17226,0.19078,-0.53622,-5.63343,-8.00920,-0.02379,-0.01433,-0.01044,-0.06685,0.61193,-0.16845
-0.15047,0.15992,0.15013,-0.53591,-5.63127,-8.01075,-0.03114,0.00412,-0.02017,-0.06680,0.61166,-0.16865
-0.15216,0.11788,0.11066,-0.53363,-5.62889,-8.01257,-0.03265,0.02065,-0.02762,-0.06650,0.61137,-0.16895
-0.17724,0.07982,0.07047,-0.52994,-5.62659,-8.01443,-0.02854,0.02756,-0.03410,-0.06603,0.61108,-0.16935
-0.14458,0.02192,0.02417,-0.52565,-5.62495,-8.01586,-0.01920,0.02683,-0.04122,-0.06548,0.61088,-0.16982
-0.07623,-0.02554,-0.00986,-0.52127,-5.62373,-8.01700,-0.01735,0.02843,-0.03870,-0.06493,0.61072,-0.17031
0.03040,-0.06278,-0.04255,-0.51732,-5.62270,-8.01798,-0.01169,0.02573,-0.02698,-0.06443,0.61060,-0.17073
0.12418,-0.08492,-0.04074,-0.51443,-5.62166,-8.01889,-0.01648,0.01835,-0.00869,-0.06406,0.61047,-0.17096
0.15122,-0.13204,-0.03872,-0.51394,-5.62033,-8.01986,-0.01859,-0.00969,0.00598,-0.06400,0.61030,-0.17098
0.05828,-0.10715,-0.03130,-0.51602,-5.61873,-8.02084,-0.02041,-0.02895,0.00859,-0.06425,0.61010,-0.17090
-0.04227,-0.06766,0.01942,-0.51872,-5.61678,-8.02204,-0.02703,-0.01984,0.00321,-0.06457,0.60986,-0.17083
-0.12576,-0.04203,-0.00900,-0.51933,-5.61457,-8.02354,-0.02909,0.00548,-0.00685,-0.06464,0.60958,-0.17086
-0.18077,-0.01372,-0.06518,-0.51729,-5.61250,-8.02512,-0.02231,0.02286,-0.02253,-0.06437,0.60933,-0.17106
-0.16358,0.02655,-0.09658,-0.51412,-5.61147,-8.02605,-0.00612,0.01840,-0.03087,-0.06397,0.60920,-0.17140
-0.06923,0.06769,-0.12543,-0.51122,-5.61191,-8.02593,0.01338,0.01057,-0.03136,-0.06361,0.60925,-0.17178
0.02282,0.07612,-0.15387,-0.50884,-5.61406,-8.02458,0.03518,0.00355,-0.02930,-0.06333,0.60952,-0.17214
0.08342,0.07973,-0.10559,-0.50764,-5.61767,-8.02212,0.05231,-0.00827,-0.01526,-0.06320,0.60997,-0.17237
0.08581,0.09473,-0.05579,-0.50764,-5.62219,-8.01896,0.06241,-0.00963,-0.01272,-0.06322,0.61053,-0.17249
-0.03994,0.11448,0.01394,-0.50713,-5.62757,-8.01521,0.06687,0.00322,-0.01771,-0.06319,0.61120,-0.17263
-0.12930,0.13147,0.08635,-0.50531,-5.63245,-8.01190,0.05133,0.01471,-0.02582,-0.06299,0.61181,-0.17284
-0.17964,0.11396,0.15469,-0.50421,-5.63559,-8.00976,0.02584,-0.02739,0.03487,-0.06287,0.61220,-0.17298
3.78496,-0.51817,0.13624,-0.53228,-5.63583,-8.00778,0.03280,-0.33982,0.23463,-0.06637,0.61223,-0.17022
-0.25500,-1.12320,-0.22672,-0.56562,-5.64057,-8.00215,0.09118,-0.30291,0.11659,-0.07057,0.61282,-0.16848
-0.41376,0.51404,-0.05199,-0.58941,-5.64542,-7.99702,0.04302,-0.10703,0.09600,-0.07357,0.61343,-0.16687
-0.66746,0.00857,0.29585,-0.59278,-5.64706,-7.99561,0.00846,0.07841,-0.00614,-0.07400,0.61363,-0.16642
-1.07553,-0.11140,-0.22072,-0.58141,-5.64785,-7.99588,0.00969,0.13614,-0.03822,-0.07259,0.61373,-0.16668
-0.45074,0.12178,-0.05347,-0.57159,-5.64955,-7.99539,0.03028,0.05511,-0.04252,-0.07137,0.61394,-0.16717
-0.28604,0.12615,-0.07143,-0.56524,-5.65316,-7.99329,0.05256,0.04337,-0.04278,-0.07060,0.61439,-0.16768
-0.22044,0.00318,-0.05248,-0.55992,-5.65694,-7.99099,0.03416,0.04367,-0.02140,-0.06995,0.61486,-0.16805
-0.10776,0.14500,0.23366,-0.55543,-5.65840,-7.99027,0.00107,0.05160,-0.00442,-0.06940,0.61505,-0.16821
-0.09349,0.17995,0.31527,-0.55115,-5.65789,-7.99093,-0.01642,0.05223,0.00953,-0.06886,0.61498,-0.16819
-0.12688,0.12082,0.33234,-0.54888,-5.65577,-7.99258,-0.03560,0.01180,0.00819,-0.06857,0.61472,-0.16811
-0.15436,0.18354,0.36096,-0.55014,-5.65220,-7.99502,-0.05328,-0.03438,0.00044,-0.06870,0.61427,-0.16809
-0.12647,0.17582,0.26796,-0.55318,-5.64777,-7.99794,-0.05741,-0.03470,-0.00429,-0.06906,0.61372,-0.16816
-0.02716,0.07621,0.13205,-0.55463,-5.64408,-8.00045,-0.03820,-0.00743,-0.00562,-0.06921,0.61326,-0.16825
0.04259,0.02421,0.04919,-0.55465,-5.64190,-8.00198,-0.01854,-0.00983,-0.01170,-0.06920,0.61299,-0.16837
0.05202,-0.04476,0.01336,-0.55510,-5.64132,-8.00236,-0.00148,-0.02398,-0.01828,-0.06926,0.61292,-0.16856
0.10796,-0.10441,-0.02318,-0.55613,-5.64168,-8.00204,0.00603,-0.02206,-0.01816,-0.06939,0.61296,-0.16878
0.13051,-0.14147,-0.02969,-0.55637,-5.64262,-8.00135,0.01350,-0.00707,-0.01580,-0.06942,0.61308,-0.16898
0.15339,-0.16558,-0.03403,-0.55591,-5.64351,-8.00076,0.00631,0.00109,-0.00808,-0.06937,0.61319,-0.16910
0.14286,-0.18385,-0.04437,-0.55541,-5.64379,-8.00060,-0.00128,-0.00120,-0.00409,-0.06931,0.61322,-0.16918
0.11937,-0.16971,-0.05270,-0.55571,-5.64326,-8.00095,-0.01285,-0.00343,0.00587,-0.06934,0.61316,-0.16917
0.07576,-0.09805,-0.05084,-0.55639,-5.64205,-8.00175,-0.01763,0.00134,0.01218,-0.06942,0.61301,-0.16906
-0.01433,-0.04763,-0.10233,-0.55684,-5.64054,-8.00279,-0.01723,0.00507,0.01110,-0.06947,0.61282,-0.16892
-0.11045,0.02373,-0.11701,-0.55708,-5.63948,-8.00352,-0.00905,0.00192,0.00692,-0.06949,0.61269,-0.16883
-0.17175,0.06341,-0.09357,-0.55683,-5.63936,-8.00362,0.00420,0.00519,-0.00435,-0.06946,0.61267,-0.16881
-0.22111,0.08176,-0.06741,-0.55581,-5.64035,-8.00300,0.01727,0.00395,-0.01538,-0.06934,0.61279,-0.16894
-0.16748,0.08195,-0.01218,-0.55422,-5.64219,-8.00181,0.02381,0.00802,-0.02308,-0.06915,0.61302,-0.16916
-0.09186,0.07132,0.02667,-0.55173,-5.64442,-8.00041,0.02590,0.02412,-0.02408,-0.06885,0.61330,-0.16942
-0.00114,0.04377,0.06246,-0.54862,-5.64680,-7.99894,0.02538,0.02297,-0.01626,-0.06848,0.61360,-0.16964
0.03562,0.04928,0.14831,-0.54634,-5.64857,-7.99784,0.01960,0.01135,-0.01067,-0.06820,0.61382,-0.16979
0.03163,0.03612,0.17553,-0.54563,-5.64993,-7.99694,0.01124,-0.00334,-0.00442,-0.06812,0.61399,-0.16987
0.00812,0.03686,0.21938,-0.54606,-5.65052,-7.99649,0.00030,-0.01338,-0.00581,-0.06818,0.61406,-0.16992
-0.00246,0.03750,0.22685,-0.54761,-5.64996,-7.99678,-0.01236,-0.02590,0.00088,-0.06837,0.61399,-0.16993
0.02201,0.00806,0.16526,-0.54993,-5.64880,-7.99744,-0.01613,-0.02343,0.00707,-0.06866,0.61385,-0.16989
0.03400,-0.04130,0.08934,-0.55190,-5.64763,-7.99813,-0.00985,-0.01127,0.00819,-0.06889,0.61370,-0.16980
-0.03117,-0.05452,0.05083,-0.55346,-5.64712,-7.99838,-0.00093,-0.01297,0.00543,-0.06909,0.61364,-0.16971
-0.09166,-0.06626,-0.00237,-0.55463,-5.64690,-7.99846,-0.00192,-0.01265,-0.00127,-0.06923,0.61361,-0.16970
-0.09134,-0.06079,-0.01806,-0.55494,-5.64684,-7.99848,-0.00224,0.00068,-0.00921,-0.06927,0.61360,-0.16976
-0.09506,-0.03320,-0.02776,-0.55346,-5.64674,-7.99865,-0.00425,0.01661,-0.01256,-0.06908,0.61359,-0.16991
-0.06588,-0.02534,-0.04212,-0.55123,-5.64653,-7.99895,-0.00344,0.02007,-0.01097,-0.06880,0.61356,-0.17007
-0.00703,0.00419,-0.02988,-0.54918,-5.64613,-7.99938,-0.00831,0.01665,-0.00720,-0.06854,0.61351,-0.17019
0.04120,0.00979,-0.06126,-0.54758,-5.64559,-7.99987,-0.00782,0.01458,-0.00288,-0.06834,0.61345,-0.17026
0.03729,0.04037,-0.05249,-0.54651,-5.64535,-8.00011,0.00159,0.01046,0.00023,-0.06821,0.61342,-0.17028
0.00345,0.04582,-0.06447,-0.54574,-5.64586,-7.99980,0.01086,0.00731,0.00081,-0.06811,0.61348,-0.17029
0.00837,0.04768,-0.06679,-0.54542,-5.64727,-7.99883,0.02480,0.00393,0.00196,-0.06808,0.61366,-0.17026
0.00765,0.03981,-0.02923,-0.54575,-5.64957,-7.99718,0.03217,-0.00852,0.00308,-0.06814,0.61394,-0.17020
-0.04264,0.01656,0.01620,-0.54723,-5.65206,-7.99532,0.03282,-0.01967,0.00059,-0.06834,0.61425,-0.17014
-0.08812,0.01522,0.06018,-0.54874,-5.65446,-7.99352,0.02638,-0.01492,-0.00321,-0.06854,0.61455,-0.17012
-0.16600,0.00121,0.07295,-0.54852,-5.65631,-7.99222,0.01803,0.00748,-0.01564,-0.06852,0.61479,-0.17021
-0.28066,-0.00554,0.05112,-0.54549,-5.65764,-7.99149,0.01128,0.03372,-0.03073,-0.06815,0.61495,-0.17048
-0.34835,0.03017,0.03710,-0.54035,-5.65850,-7.99124,0.00304,0.04388,-0.04481,-0.06752,0.61506,-0.17095
-0.26551,0.05193,0.04196,-0.53221,-5.65811,-7.99206,-0.01711,0.07899,-0.05068,-0.06649,0.61501,-0.17157
-0.05992,0.05463,0.09850,-0.52457,-5.65631,-7.99383,-0.02959,0.04599,-0.03663,-0.06553,0.61479,-0.17213
0.13656,-0.00517,0.00940,-0.52188,-5.65412,-7.99556,-0.02724,-0.01783,-0.01994,-0.06518,0.61451,-0.17249
0.14679,0.06133,-0.04211,-0.52447,-5.65224,-7.99672,-0.01802,-0.05774,-0.00984,-0.06549,0.61428,-0.17269
0.08703,0.07397,-0.05810,-0.52757,-5.65171,-7.99689,0.00414,-0.01442,-0.00573,-0.06588,0.61421,-0.17276
0.14214,0.02636,-0.10566,-0.52656,-5.65303,-7.99602,0.02468,0.03105,0.00063,-0.06576,0.61438,-0.17277
0.12242,-0.00733,-0.03136,-0.52494,-5.65540,-7.99445,0.03043,0.00690,-0.00747,-0.06557,0.61467,-0.17276
0.02207,-0.01237,0.11103,-0.52530,-5.65800,-7.99259,0.03151,-0.02394,-0.01595,-0.06563,0.61500,-0.17288
0.02865,-0.06846,0.16295,-0.52574,-5.66071,-7.99064,0.03136,-0.00107,-0.01777,-0.06570,0.61534,-0.17307
0.16299,-0.13795,0.20520,-0.52332,-5.66276,-7.98935,0.01487,0.04429,-0.00484,-0.06541,0.61559,-0.17319
0.26937,-0.19627,0.26142,-0.51971,-5.66294,-7.98945,-0.01268,0.04421,0.01526,-0.06496,0.61561,-0.17313
0.30269,-0.22358,0.32811,-0.51921,-5.66032,-7.99135,-0.04468,0.00490,0.03703,-0.06488,0.61529,-0.17282
0.25271,-0.20072,0.32057,-0.52251,-5.65564,-7.99444,-0.06497,-0.01935,0.04808,-0.06527,0.61470,-0.17233
0.13460,-0.16316,0.26022,-0.52680,-5.64981,-7.99828,-0.07484,-0.00675,0.05597,-0.06577,0.61397,-0.17175
0.02824,-0.13414,0.17063,-0.52938,-5.64337,-8.00266,-0.07932,0.02184,0.05191,-0.06605,0.61317,-0.17113
-0.06121,-0.08478,0.08892,-0.52971,-5.63676,-8.00729,-0.07750,0.03383,0.04562,-0.06606,0.61235,-0.17060
-0.08054,-0.05680,-0.00746,-0.52923,-5.63108,-8.01132,-0.06008,0.03596,0.03749,-0.06596,0.61164,-0.17014
-0.06915,-0.04547,-0.06063,-0.52910,-5.62669,-8.01441,-0.04277,0.02348,0.03657,-0.06592,0.61109,-0.16972
-0.04191,-0.02671,-0.07976,-0.52986,-5.62360,-8.01653,-0.02676,0.01240,0.04145,-0.06600,0.61071,-0.16928
-0.01996,0.00051,-0.09212,-0.53161,-5.62164,-8.01779,-0.01550,0.00543,0.04401,-0.06621,0.61046,-0.16879
-0.06097,0.02940,-0.09226,-0.53414,-5.62031,-8.01855,-0.01409,-0.00511,0.04789,-0.06651,0.61030,-0.16823
-0.10394,0.08174,-0.06608,-0.53755,-5.61893,-8.01929,-0.01556,-0.01001,0.04605,-0.06693,0.61013,-0.16766
-0.15607,0.13126,-0.04527,-0.54050,-5.61758,-8.02004,-0.01265,-0.00110,0.03813,-0.06729,0.60996,-0.16716
-0.20963,0.13621,-0.07941,-0.54200,-5.61639,-8.02077,-0.01156,0.01124,0.02933,-0.06747,0.60981,-0.16676
-0.20877,0.14877,-0.10917,-0.54211,-5.61593,-8.02109,0.00159,0.01898,0.02142,-0.06748,0.60975,-0.16646
-0.16512,0.16152,-0.17810,-0.54207,-5.61671,-8.02054,0.01900,0.00422,0.01435,-0.06748,0.60985,-0.16624
-0.14204,0.15048,-0.17807,-0.54300,-5.61914,-8.01878,0.04112,-0.00927,0.01044,-0.06761,0.61015,-0.16607
-0.09145,0.14812,-0.15624,-0.54466,-5.62306,-8.01592,0.05475,-0.01661,0.01138,-0.06784,0.61064,-0.16589
-0.08755,0.13352,-0.10996,-0.54676,-5.62792,-8.01236,0.06463,-0.01771,0.01091,-0.06813,0.61125,-0.16569
-0.15038,0.09998,-0.01768,-0.54843,-5.63314,-8.00858,0.06357,-0.00845,0.00486,-0.06837,0.61190,-0.16551
-0.20482,0.11095,0.06188,-0.54906,-5.63782,-8.00524,0.05227,-0.00476,-0.00066,-0.06848,0.61248,-0.16544
-0.20328,0.10273,0.12210,-0.54895,-5.64156,-8.00261,0.03893,-0.00185,-0.01200,-0.06849,0.61295,-0.16549
-0.22473,0.08845,0.13438,-0.54785,-5.64420,-8.00083,0.02675,0.00296,-0.02197,-0.06837,0.61327,-0.16567
-0.16324,0.05786,0.10997,-0.54619,-5.64608,-7.99962,0.01790,0.00568,-0.02852,-0.06817,0.61351,-0.16596
-0.09462,0.03262,0.08160,-0.54403,-5.64748,-7.99878,0.01636,0.00572,-0.03157,-0.06791,0.61368,-0.16631
-0.02221,0.00509,0.04701,-0.54208,-5.64898,-7.99785,0.01984,0.00330,-0.02721,-0.06767,0.61387,-0.16667
0.03129,-0.00368,0.03847,-0.54066,-5.65082,-7.99664,0.02571,-0.00210,-0.02059,-0.06751,0.61410,-0.16695
0.01945,-0.01895,0.05551,-0.54019,-5.65322,-7.99498,0.03359,-0.00800,-0.01353,-0.06746,0.61440,-0.16714
0.03539,-0.00436,0.10706,-0.53982,-5.65568,-7.99326,0.02968,0.00036,-0.01065,-0.06743,0.61471,-0.16726
0.02279,0.01240,0.15206,-0.53904,-5.65793,-7.99173,0.02545,0.00348,-0.01315,-0.06735,0.61499,-0.16738
-0.03288,-0.00350,0.19156,-0.53783,-5.65953,-7.99067,0.01575,0.00674,-0.01675,-0.06721,0.61519,-0.16754
-0.03354,0.00397,0.21691,-0.53643,-5.66043,-7.99013,0.00665,0.00824,-0.01795,-0.06704,0.61530,-0.16774
0.00170,0.01780,0.22369,-0.53441,-5.66033,-7.99033,-0.01120,0.01435,-0.01927,-0.06678,0.61529,-0.16796
0.00301,0.04014,0.20327,-0.53198,-5.65919,-7.99131,-0.01918,0.01455,-0.02593,-0.06647,0.61514,-0.16825
-0.07501,0.07428,0.17413,-0.52907,-5.65770,-7.99255,-0.02348,0.01307,-0.03765,-0.06610,0.61496,-0.16866
-0.13701,0.10518,0.11446,-0.52499,-5.65614,-7.99393,-0.01890,0.02627,-0.05178,-0.06558,0.61476,-0.16922
-0.14173,0.10816,0.06263,-0.51892,-5.65508,-7.99507,-0.01523,0.03747,-0.06524,-0.06481,0.61463,-0.16996
-0.12239,0.10659,-0.02209,-0.51193,-5.65471,-7.99579,-0.00368,0.04024,-0.06938,-0.06394,0.61458,-0.17081
-0.00540,0.08809,-0.10948,-0.50531,-5.65551,-7.99564,0.01427,0.03486,-0.05932,-0.06311,0.61468,-0.17159
0.07577,0.01793,-0.15429,-0.49999,-5.65777,-7.99437,0.03175,0.02193,-0.04466,-0.06246,0.61497,-0.17221
2.57548,-0.40496,-0.03092,-0.51601,-5.65835,-7.99294,0.01464,-0.20455,0.30210,-0.06447,0.61504,-0.16960
1.51526,-1.49902,0.08912,-0.54247,-5.66069,-7.98954,0.05145,-0.17374,0.07839,-0.06779,0.61533,-0.16749
-1.41889,0.39422,0.11949,-0.55932,-5.66117,-7.98804,-0.03058,-0.08166,0.13058,-0.06991,0.61539,-0.16594
-0.27668,0.10467,0.69451,-0.56249,-5.65562,-7.99174,-0.09312,0.10560,-0.00319,-0.07027,0.61470,-0.16531
-1.11922,-0.20683,0.01740,-0.54730,-5.64760,-7.99847,-0.10639,0.20150,-0.02831,-0.06832,0.61370,-0.16560
-0.48282,0.11085,0.00534,-0.53456,-5.63981,-8.00482,-0.08420,0.06740,-0.04114,-0.06668,0.61273,-0.16611
-0.32777,0.23230,-0.20657,-0.52950,-5.63587,-8.00793,-0.01999,-0.00003,-0.04871,-0.06603,0.61224,-0.16672
-0.16827,0.09640,-0.46029,-0.52874,-5.63584,-8.00800,0.01029,-0.02692,-0.02166,-0.06593,0.61223,-0.16716
-0.00439,0.17335,-0.31234,-0.52966,-5.63752,-8.00676,0.02935,-0.00546,0.00107,-0.06606,0.61244,-0.16725
-0.09839,0.21442,-0.25590,-0.52994,-5.64043,-8.00469,0.03998,-0.00716,-0.00017,-0.06611,0.61280,-0.16722
-0.26291,0.12284,-0.15967,-0.53152,-5.64387,-8.00216,0.04277,-0.03443,-0.00390,-0.06632,0.61323,-0.16721
-0.19966,0.13924,0.00138,-0.53431,-5.64695,-7.99980,0.03131,-0.04319,-0.01100,-0.06669,0.61362,-0.16726
-0.17332,0.10185,0.08479,-0.53642,-5.64877,-7.99838,0.01503,-0.02921,-0.01630,-0.06697,0.61384,-0.16741
-0.14447,0.02690,0.09638,-0.53698,-5.64969,-7.99769,0.00638,-0.01493,-0.01853,-0.06704,0.61396,-0.16762
-0.07296,-0.00606,0.08868,-0.53652,-5.65024,-7.99733,0.00280,-0.00725,-0.02535,-0.06699,0.61403,-0.16788
0.03797,-0.03112,0.07841,-0.53596,-5.65107,-7.99678,0.01474,-0.01402,-0.02608,-0.06692,0.61413,-0.16818
0.08505,-0.04962,0.07734,-0.53561,-5.65262,-7.99571,0.02203,-0.01566,-0.02884,-0.06689,0.61432,-0.16851
0.13064,-0.08329,0.06003,-0.53511,-5.65471,-7.99427,0.02598,-0.01073,-0.02825,-0.06684,0.61459,-0.16883
0.19334,-0.08133,0.07022,-0.53407,-5.65712,-7.99263,0.02916,-0.00415,-0.02706,-0.06672,0.61489,-0.16914
0.24489,-0.08209,0.09011,-0.53294,-5.65935,-7.99112,0.02189,0.00213,-0.01386,-0.06659,0.61517,-0.16938
0.25500,-0.09570,0.11722,-0.53228,-5.66086,-7.99010,0.01384,-0.00002,-0.00208,-0.06652,0.61535,-0.16946
0.24687,-0.08609,0.12701,-0.53267,-5.66179,-7.98942,0.00993,0.00010,0.01364,-0.06657,0.61547,-0.16939
0.14793,-0.05149,0.14540,-0.53324,-5.66197,-7.98925,-0.00307,0.00810,0.01558,-0.06665,0.61549,-0.16920
0.00133,-0.03150,0.15174,-0.53359,-5.66102,-7.98990,-0.01802,0.00484,0.01480,-0.06668,0.61537,-0.16902
-0.13401,-0.00199,0.18882,-0.53412,-5.65910,-7.99122,-0.02685,-0.00119,0.00781,-0.06674,0.61513,-0.16888
-0.18135,0.01654,0.13685,-0.53421,-5.65683,-7.99282,-0.02786,0.00669,-0.00091,-0.06674,0.61485,-0.16886
-0.19574,0.03092,0.04639,-0.53284,-5.65475,-7.99439,-0.02722,0.01909,-0.00796,-0.06655,0.61459,-0.16896
-0.15301,0.01022,-0.00287,-0.53038,-5.65290,-7.99586,-0.02148,0.02367,-0.01438,-0.06623,0.61436,-0.16913
-0.07021,0.01144,-0.08406,-0.52759,-5.65203,-7.99666,-0.00512,0.02095,-0.01637,-0.06588,0.61425,-0.16933
0.00221,0.02032,-0.13895,-0.52550,-5.65238,-7.99655,0.01245,0.00979,-0.01024,-0.06562,0.61429,-0.16949
0.00842,0.04254,-0.12717,-0.52452,-5.65380,-7.99561,0.01942,0.00081,-0.00472,-0.06551,0.61447,-0.16957
-0.02592,0.06004,-0.07307,-0.52459,-5.65559,-7.99434,0.02258,-0.00487,0.00058,-0.06553,0.61470,-0.16957
-0.00960,0.05564,-0.01110,-0.52535,-5.65718,-7.99317,0.01693,-0.01279,0.00310,-0.06563,0.61489,-0.16954
-0.07536,0.05115,0.05482,-0.52724,-5.65837,-7.99220,0.01091,-0.02917,-0.00149,-0.06587,0.61504,-0.16950
-0.11444,0.03036,0.08463,-0.53004,-5.65913,-7.99148,0.00605,-0.03733,-0.00093,-0.06623,0.61514,-0.16948
-0.09215,0.00522,0.03107,-0.53244,-5.65973,-7.99089,0.00571,-0.02414,-0.00244,-0.06653,0.61521,-0.16949
-0.06166,-0.01134,0.00923,-0.53389,-5.66022,-7.99045,0.00437,-0.01452,-0.00788,-0.06672,0.61527,-0.16953
-0.08111,-0.01135,0.01142,-0.53450,-5.66066,-7.99009,0.00597,-0.01677,-0.01363,-0.06680,0.61533,-0.16965
-0.07853,-0.01519,-0.03483,-0.53513,-5.66147,-7.98948,0.01173,-0.01816,-0.01536,-0.06688,0.61543,-0.16982
-0.03046,-0.01311,-0.06401,-0.53502,-5.66294,-7.98844,0.02472,0.00236,-0.01308,-0.06687,0.61561,-0.16999
0.05285,-0.04117,-0.04441,-0.53259,-5.66571,-7.98664,0.04033,0.03219,-0.01199,-0.06659,0.61596,-0.17012
0.00047,-0.02173,0.01698,-0.52929,-5.66914,-7.98443,0.04265,0.02443,-0.01830,-0.06619,0.61639,-0.17027
-0.09485,0.01505,0.06308,-0.52868,-5.67255,-7.98205,0.03920,-0.02357,-0.00739,-0.06614,0.61681,-0.17039
0.20575,-0.12556,0.04951,-0.53136,-5.67559,-7.97970,0.03469,-0.03656,0.00664,-0.06649,0.61719,-0.17035
0.21638,-0.11067,0.10025,-0.53361,-5.67746,-7.97823,0.01004,-0.00197,0.01425,-0.06678,0.61743,-0.17021
0.11251,-0.11570,0.26050,-0.53314,-5.67648,-7.97896,-0.03623,0.03169,0.01749,-0.06672,0.61730,-0.17002
0.04371,-0.08267,0.30163,-0.53153,-5.67224,-7.98208,-0.06572,0.02801,0.01702,-0.06649,0.61678,-0.16985
0.03376,-0.07086,0.26989,-0.53115,-5.66640,-7.98625,-0.07344,0.00777,0.02120,-0.06641,0.61604,-0.16969
0.08221,-0.04338,0.12167,-0.53262,-5.66110,-7.98991,-0.05391,-0.00376,0.03320,-0.06656,0.61538,-0.16940
0.09725,-0.00089,-0.00084,-0.53509,-5.65720,-7.99250,-0.03836,-0.00764,0.03618,-0.06685,0.61490,-0.16902
0.04343,0.06168,-0.03358,-0.53799,-5.65498,-7.99388,-0.01042,-0.00775,0.03816,-0.06720,0.61462,-0.16858
-0.03951,0.06218,-0.05192,-0.54033,-5.65488,-7.99379,0.00750,-0.00262,0.02673,-0.06749,0.61461,-0.16816
-0.13463,0.07262,-0.00336,-0.54113,-5.65575,-7.99313,0.01264,0.01198,0.01419,-0.06760,0.61471,-0.16792
-0.13063,0.03714,0.09720,-0.54004,-5.65649,-7.99268,0.00119,0.02750,0.00878,-0.06746,0.61481,-0.16778
-0.07370,-0.00732,0.12946,-0.53832,-5.65632,-7.99291,-0.00742,0.02316,0.00693,-0.06725,0.61479,-0.16769
-0.00802,-0.01429,0.16506,-0.53741,-5.65473,-7.99410,-0.02809,0.01664,0.01731,-0.06712,0.61459,-0.16757
0.04254,-0.05570,0.17489,-0.53724,-5.65163,-7.99630,-0.04740,0.01325,0.02310,-0.06709,0.61420,-0.16736
0.02634,-0.06215,0.12911,-0.53780,-5.64712,-7.99945,-0.06283,0.00851,0.02961,-0.06713,0.61364,-0.16709
0.03359,-0.03456,0.05047,-0.53922,-5.64179,-8.00311,-0.06469,0.00362,0.04259,-0.06727,0.61297,-0.16670
0.01579,-0.00961,-0.03868,-0.54132,-5.63667,-8.00658,-0.05500,0.00110,0.04182,-0.06751,0.61234,-0.16625
-0.05483,0.02392,-0.13502,-0.54298,-5.63263,-8.00931,-0.03733,0.01250,0.03406,-0.06769,0.61183,-0.16581
-0.09703,0.03067,-0.17678,-0.54357,-5.63026,-8.01094,-0.02067,0.01120,0.02407,-0.06775,0.61154,-0.16548
-0.10647,0.04090,-0.16815,-0.54415,-5.62941,-8.01149,0.00103,0.00587,0.01879,-0.06782,0.61143,-0.16522
-0.10855,0.05363,-0.15800,-0.54477,-5.63003,-8.01102,0.01460,-0.00133,0.01422,-0.06790,0.61151,-0.16502
-0.09434,0.06557,-0.13272,-0.54581,-5.63164,-8.00981,0.02227,-0.00602,0.01152,-0.06804,0.61171,-0.16485
-0.08671,0.07746,-0.08290,-0.54715,-5.63365,-8.00831,0.02833,-0.01237,0.00901,-0.06822,0.61196,-0.16469
-0.11500,0.07222,-0.03530,-0.54849,-5.63605,-8.00653,0.03177,-0.01267,0.00509,-0.06840,0.61226,-0.16459
-0.12122,0.09067,-0.03088,-0.54915,-5.63864,-8.00466,0.03235,-0.00402,-0.00337,-0.06850,0.61258,-0.16456
-0.10139,0.06033,-0.04703,-0.54879,-5.64121,-8.00287,0.03265,0.00654,-0.00352,-0.06847,0.61290,-0.16458
-0.04868,0.02059,-0.05741,-0.54823,-5.64367,-8.00118,0.03212,0.00406,0.00002,-0.06841,0.61321,-0.16458
0.03340,-0.00264,-0.03015,-0.54890,-5.64633,-7.99926,0.03545,-0.01322,0.00958,-0.06851,0.61354,-0.16450
0.06831,-0.02073,-0.01504,-0.55164,-5.64904,-7.99715,0.03345,-0.03420,0.01809,-0.06887,0.61388,-0.16429
0.04689,-0.04309,0.01643,-0.55596,-5.65152,-7.99510,0.02663,-0.04259,0.02721,-0.06943,0.61419,-0.16398
-0.00721,-0.03581,0.05311,-0.56066,-5.65356,-7.99333,0.02576,-0.03878,0.02947,-0.07003,0.61444,-0.16362
-0.08014,-0.01059,0.07614,-0.56480,-5.65528,-7.99182,0.01946,-0.02635,0.02323,-0.07055,0.61466,-0.16329
-0.16180,0.01922,0.09293,-0.56738,-5.65667,-7.99066,0.01857,-0.01103,0.01339,-0.07089,0.61483,-0.16304
-0.19999,0.03191,0.06459,-0.56840,-5.65813,-7.98954,0.02213,-0.00280,0.00196,-0.07102,0.61501,-0.16295
-0.14165,0.04781,0.02980,-0.56808,-5.65996,-7.98827,0.02735,0.00153,-0.01128,-0.07100,0.61524,-0.16300
-0.05471,0.05294,-0.00419,-0.56718,-5.66240,-7.98661,0.03416,0.00444,-0.00883,-0.07090,0.61555,-0.16311
0.05638,0.02900,-0.01935,-0.56679,-5.66525,-7.98462,0.03970,-0.00611,-0.00288,-0.07087,0.61590,-0.16316
0.07884,0.01730,0.00019,-0.56786,-5.66881,-7.98201,0.04608,-0.01993,0.00029,-0.07102,0.61635,-0.16314
0.09468,0.02378,0.05098,-0.56993,-5.67230,-7.97938,0.04346,-0.02701,0.00718,-0.07130,0.61678,-0.16306
0.06555,0.01906,0.11928,-0.57268,-5.67551,-7.97690,0.03786,-0.02860,0.01033,-0.07167,0.61718,-0.16290
-0.00063,0.02770,0.14734,-0.57533,-5.67787,-7.97503,0.02522,-0.02122,0.00908,-0.07202,0.61748,-0.16276
0.00439,0.03744,0.14444,-0.57735,-5.67922,-7.97392,0.01098,-0.00836,0.01656,-0.07228,0.61765,-0.16259
0.06623,-0.00506,0.10590,-0.57874,-5.67982,-7.97340,0.00810,0.00119,0.02637,-0.07246,0.61772,-0.16233
0.08250,-0.04325,0.00350,-0.58065,-5.68054,-7.97275,0.01301,-0.00410,0.03617,-0.07270,0.61781,-0.16193
0.05691,-0.06349,-0.05020,-0.58423,-5.68140,-7.97187,0.01361,-0.03067,0.04462,-0.07316,0.61792,-0.16142
0.00324,-0.06074,-0.05999,-0.59012,-5.68235,-7.97076,0.01863,-0.05062,0.04768,-0.07390,0.61804,-0.16084
-0.09998,-0.05043,-0.03604,-0.59673,-5.68353,-7.96943,0.02021,-0.04892,0.04074,-0.07474,0.61819,-0.16028
-0.23454,-0.01556,-0.04415,-0.60163,-5.68474,-7.96820,0.01511,-0.02856,0.02200,-0.07536,0.61834,-0.15987
-0.24348,0.02242,-0.04298,-0.60407,-5.68620,-7.96697,0.02324,-0.01209,0.00682,-0.07568,0.61852,-0.15967
-0.26341,0.06083,-0.03179,-0.60494,-5.68825,-7.96544,0.03159,-0.01517,-0.01161,-0.07580,0.61878,-0.15967
-0.23093,0.09677,-0.03997,-0.60539,-5.69127,-7.96325,0.04160,-0.02209,-0.02244,-0.07588,0.61916,-0.15985
-0.16774,0.12150,-0.01290,-0.60604,-5.69520,-7.96039,0.05035,-0.03373,-0.03186,-0.07598,0.61965,-0.16015
-0.12351,0.14322,0.01912,-0.60627,-5.69957,-7.95725,0.05484,-0.02218,-0.03972,-0.07604,0.62020,-0.16055
-0.12023,0.15520,0.07703,-0.60521,-5.70407,-7.95410,0.05149,-0.00917,-0.04316,-0.07594,0.62076,-0.16101
-0.13771,0.17086,0.11878,-0.60330,-5.70865,-7.95096,0.05432,-0.00672,-0.05007,-0.07573,0.62133,-0.16152
-0.17152,0.19485,0.17271,-0.60091,-5.71319,-7.94788,0.04693,-0.00941,-0.05840,-0.07546,0.62190,-0.16213
-0.16846,0.17803,0.19767,-0.59843,-5.71702,-7.94531,0.03543,-0.01371,-0.06402,-0.07518,0.62238,-0.16284
-0.11539,0.14426,0.24452,-0.59539,-5.71961,-7.94368,0.01768,-0.00217,-0.06055,-0.07481,0.62271,-0.16358
0.46735,0.06968,0.26615,-0.60232,-5.71835,-7.94406,-0.06148,-0.08430,0.47704,-0.07568,0.62255,-0.16236
5.84386,-2.04712,0.79805,-0.64230,-5.71264,-7.94504,-0.01972,-0.27846,0.19667,-0.08067,0.62183,-0.15812
-1.16713,-0.64444,0.24614,-0.67296,-5.70708,-7.94650,-0.08830,-0.14590,0.30262,-0.08449,0.62114,-0.15501
0.41094,0.01213,1.27955,-0.69301,-5.69402,-7.95414,-0.19626,0.00154,0.15985,-0.08691,0.61950,-0.15224
-1.17711,-0.24658,0.81083,-0.68977,-5.67563,-7.96755,-0.23535,0.19864,0.05408,-0.08636,0.61720,-0.15123
-1.01618,0.01544,0.26820,-0.67622,-5.65753,-7.98157,-0.21137,0.15202,-0.00334,-0.08452,0.61494,-0.15120
-0.57380,0.25639,-0.01111,-0.66640,-5.64380,-7.99211,-0.13207,0.07013,-0.03760,-0.08319,0.61322,-0.15162
-0.36876,0.28413,-0.49498,-0.66075,-5.63696,-7.99740,-0.05232,0.02285,-0.03056,-0.08243,0.61237,-0.15217
-0.19354,0.26928,-0.59093,-0.65805,-5.63499,-7.99902,-0.00228,0.03684,-0.00291,-0.08208,0.61213,-0.15236
